Subject,Session,Block,Condition,Trial,whetherCued,leftStim,rightStim,midStim,remCueLoc,fogCueLoc,neutralCueLoc,probeCueLoc,probeRem,probeForget,probeNeutral,Target,Estimate,RT,Error,Points
111,1,1,1,1,1,285.3167,75.3195,349.6993,2,3,1,2,1,0,0,75.3195,79.0189,1.3954,3.6994,30,
111,1,1,1,2,0,317.7602,47.7922,225.3341,0,0,0,2,0,0,0,47.7922,59.098,1.7014,11.3058,30,
111,1,1,1,3,1,345.9818,317.6386,285.7384,3,1,2,1,0,1,0,345.9818,317.2449,2.8472,-28.7369,10,
111,1,1,1,4,1,15.6096,196.4513,135.3117,1,2,3,1,1,0,0,15.6096,31.826,1.3825,16.2164,20,
111,1,1,1,5,1,46.0894,18.765,77.5992,3,1,2,3,1,0,0,77.5992,62.9372,1.7571,-14.662,20,
111,1,1,1,6,1,136.9584,228.1068,79.8258,1,2,3,1,1,0,0,136.9584,114.0651,1.6943,-22.8933,10,
111,1,1,1,7,0,289.1912,319.5068,107.2497,0,0,0,1,0,0,0,289.1912,298.5798,2.3471,9.3887,30,
111,1,1,1,8,1,49.572,257.4728,198.5512,2,1,3,2,1,0,0,257.4728,241.9523,1.8332,-15.5205,20,
111,1,1,1,9,0,165.1693,347.2055,255.6489,0,0,0,3,0,0,0,255.6489,243.3286,3.7151,-12.3203,20,
111,1,1,1,10,0,228.007,199.7351,258.1561,0,0,0,3,0,0,0,258.1561,240.2259,1.9582,-17.9302,20,
111,1,1,1,11,1,47.5178,139.5352,315.6181,2,3,1,3,0,1,0,315.6181,131.2257,3.9581,175.6077,0,
111,1,1,1,12,1,48.1707,168.8863,199.4925,3,2,1,3,1,0,0,199.4925,219.1105,3.0552,19.618,20,
111,1,1,1,13,1,45.8059,17.0895,196.8453,1,2,3,1,1,0,0,45.8059,22.4775,1.9306,-23.3284,10,
111,1,1,1,14,1,226.5243,18.8994,167.4361,2,1,3,2,1,0,0,18.8994,46.1719,1.7013,27.2726,10,
111,1,1,1,15,1,107.2871,288.6659,137.7912,3,2,1,2,0,1,0,288.6659,293.4891,2.1179,4.8232,30,
111,1,1,1,16,1,345.9916,285.1034,258.9614,2,3,1,1,0,0,1,345.9916,302.1402,1.9235,-43.8514,0,
111,1,1,1,17,0,17.4427,165.3267,137.2849,0,0,0,1,0,0,0,17.4427,31.2534,2.5068,13.8107,20,
111,1,1,1,18,1,225.5959,45.6461,285.3898,2,1,3,2,1,0,0,45.6461,56.0737,1.2708,10.4276,30,
111,1,1,1,19,0,345.5065,167.3447,108.5532,0,0,0,1,0,0,0,345.5065,299.3365,3.3401,-46.17,0,
111,1,1,1,20,1,195.0114,49.7227,228.9624,1,3,2,1,1,0,0,195.0114,205.574,1.9582,10.5625,30,
111,1,1,1,21,1,318.2166,139.1068,106.8927,2,3,1,1,0,0,1,318.2166,312.9046,2.5003,-5.312,30,
111,1,1,1,22,0,18.1388,289.0957,195.9448,0,0,0,2,0,0,0,289.0957,292.8025,3.236,3.7068,30,
111,1,1,1,23,0,229.4223,166.7051,346.0256,0,0,0,1,0,0,0,229.4223,219.4411,2.4025,-9.9812,30,
111,1,1,1,24,1,49.0602,75.163,347.0752,3,1,2,3,1,0,0,347.0752,337.7022,1.8192,-9.373,30,
111,1,1,1,25,0,346.1367,139.5344,49.3449,0,0,0,3,0,0,0,49.3449,33.5507,2.5554,-15.7942,20,
111,1,1,1,26,1,77.8374,108.2883,348.4279,2,1,3,1,0,1,0,77.8374,97.512,2.5207,19.6746,20,
111,1,1,1,27,1,77.0033,256.8647,17.2163,1,3,2,1,1,0,0,77.0033,92.8991,1.4585,15.8958,20,
111,1,1,1,28,1,288.4182,45.772,199.8716,2,1,3,3,0,0,1,199.8716,300.3888,2.8401,100.5173,0,
111,1,1,1,29,1,255.4666,286.0334,316.5138,1,2,3,2,0,1,0,286.0334,284.2443,1.9721,-1.7891,40,
111,1,1,1,30,0,167.4432,225.3904,107.6503,0,0,0,3,0,0,0,107.6503,106.3985,2.2429,-1.2519,40,
111,1,1,1,31,0,348.6538,109.5044,167.3202,0,0,0,1,0,0,0,348.6538,158.0227,4.4719,169.3689,0,
111,1,1,1,32,1,255.7227,348.6468,197.4114,1,3,2,1,1,0,0,255.7227,237.8567,2.6387,-17.866,20,
111,1,1,1,33,1,106.2995,48.3854,347.5991,1,2,3,3,0,0,1,347.5991,313.1446,2.1734,-34.4545,0,
111,1,1,1,34,1,48.8653,16.9624,78.0265,1,3,2,1,1,0,0,48.8653,55.0357,2.3053,6.1704,30,
111,1,1,1,35,0,75.5347,288.3139,139.7729,0,0,0,3,0,0,0,139.7729,103.6825,2.4165,-36.0904,0,
111,1,1,1,36,1,229.6057,109.4654,319.9859,1,3,2,3,0,1,0,319.9859,297.5601,2.0971,-22.4258,10,
111,1,1,1,37,1,259.233,18.9726,109.5014,3,1,2,3,1,0,0,109.5014,98.9741,1.8679,-10.5273,30,
111,1,1,1,38,0,256.0912,315.4982,168.0975,0,0,0,3,0,0,0,168.0975,147.0753,2.7985,-21.0223,10,
111,1,1,1,39,0,165.5577,17.8966,139.3519,0,0,0,2,0,0,0,17.8966,37.8925,2.7776,19.9959,20,
111,1,1,1,40,1,139.5455,346.0382,196.9103,1,2,3,2,0,1,0,346.0382,332.2971,2.8817,-13.741,20,
111,1,1,1,41,1,226.8033,199.4036,348.7218,1,2,3,2,0,1,0,199.4036,215.8759,3.465,16.4723,20,
111,1,1,1,42,0,258.5107,76.1986,169.7974,0,0,0,3,0,0,0,169.7974,135.2556,2.5346,-34.5418,0,
111,1,1,1,43,1,46.1226,316.3501,257.0922,1,2,3,1,1,0,0,46.1226,64.3698,2.0832,18.2472,20,
111,1,1,1,44,1,138.3904,287.1424,258.274,3,1,2,3,1,0,0,258.274,243.5863,1.5624,-14.6877,20,
111,1,1,1,45,0,286.8174,107.1734,348.438,0,0,0,2,0,0,0,107.1734,107.3341,1.4373,0.16075,40,
111,1,1,1,46,1,15.6333,107.5663,138.5797,2,3,1,2,1,0,0,107.5663,105.3906,2.0554,-2.1757,40,
111,1,1,1,47,1,257.6019,319.4264,18.2413,1,2,3,1,1,0,0,257.6019,231.0103,2.4651,-26.5916,10,
111,1,1,1,48,0,46.4256,137.6475,317.7992,0,0,0,1,0,0,0,46.4256,56.1431,2.2638,9.7175,30,
111,1,1,1,49,0,348.2232,319.9007,165.5086,0,0,0,2,0,0,0,319.9007,317.1052,1.9374,-2.7954,40,
111,1,1,1,50,1,49.2794,288.072,15.5871,3,1,2,3,1,0,0,15.5871,27.8018,3.3609,12.2148,20,
111,1,1,1,51,1,315.4042,227.0562,48.5632,3,2,1,3,1,0,0,48.5632,35.0651,2.5346,-13.498,20,
111,1,1,1,52,0,258.014,17.9574,166.1263,0,0,0,1,0,0,0,258.014,212.3763,2.1386,-45.6377,0,
111,1,1,1,53,1,46.9871,225.5229,135.9693,3,2,1,3,1,0,0,135.9693,121.6032,1.9861,-14.3661,20,
111,1,1,1,54,1,316.1599,105.8405,255.1336,2,3,1,2,1,0,0,105.8405,104.3119,2.361,-1.5287,40,
111,1,1,1,55,1,137.1783,255.6832,346.4986,3,1,2,3,1,0,0,346.4986,321.4283,1.618,-25.0703,10,
111,1,1,1,56,1,226.1171,48.3665,259.0939,3,1,2,3,1,0,0,259.0939,245.9102,2.0345,-13.1838,20,
111,1,1,1,57,0,167.0201,195.2052,76.4691,0,0,0,3,0,0,0,76.4691,105.0863,2.6037,28.6172,10,
111,1,1,1,58,1,17.6756,106.6678,139.2734,3,1,2,1,0,1,0,17.6756,46.7549,3.0276,29.0793,10,
111,1,1,1,59,1,168.6383,19.2866,139.9592,3,1,2,2,0,0,1,19.2866,36.8738,1.6665,17.5872,20,
111,1,1,1,60,0,109.1686,49.0772,256.6198,0,0,0,2,0,0,0,49.0772,52.454,1.6458,3.3767,30,
111,1,2,1,61,1,135.2687,168.1844,109.8019,2,1,3,2,1,0,0,168.1844,140.0839,2.9998,-28.1005,10,
111,1,2,1,62,1,198.5914,169.7232,105.4389,3,1,2,3,1,0,0,105.4389,91.3434,1.9027,-14.0955,20,
111,1,2,1,63,1,166.5304,259.8329,315.6497,1,3,2,2,0,0,1,259.8329,306.1377,3.347,46.3047,0,
111,1,2,1,64,1,348.519,288.9045,17.8242,1,3,2,1,1,0,0,348.519,347.0076,1.9166,-1.5115,40,
111,1,2,1,65,1,47.4122,17.1561,228.4941,3,1,2,3,1,0,0,228.4941,238.8618,1.9444,10.3677,30,
111,1,2,1,66,1,48.834,319.4916,78.8341,2,3,1,2,1,0,0,319.4916,314.1328,2.0763,-5.3589,30,
111,1,2,1,67,0,259.652,137.2348,49.1694,0,0,0,3,0,0,0,49.1694,50.0946,2.5277,0.92519,40,
111,1,2,1,68,0,77.4526,227.0373,345.4197,0,0,0,2,0,0,0,227.0373,239.7761,3.4304,12.7389,20,
111,1,2,1,69,0,107.4171,288.4239,317.4001,0,0,0,3,0,0,0,317.4001,301.2644,1.3126,-16.1356,20,
111,1,2,1,70,0,106.8887,256.3605,45.6265,0,0,0,1,0,0,0,106.8887,115.2875,1.8679,8.3988,30,
111,1,2,1,71,1,76.054,256.3269,109.9659,2,1,3,2,1,0,0,256.3269,253.6506,1.9513,-2.6763,40,
111,1,2,1,72,1,256.552,16.7177,75.3811,1,2,3,3,0,0,1,75.3811,46.4501,2.5137,-28.9311,10,
111,1,2,1,73,1,107.8588,347.9646,138.4931,3,2,1,1,0,0,1,107.8588,125.0701,2.5001,17.2113,20,
111,1,2,1,74,0,137.135,109.5651,19.4866,0,0,0,2,0,0,0,109.5651,100.4028,3.0971,-9.1623,30,
111,1,2,1,75,1,286.221,47.191,168.6755,2,3,1,2,1,0,0,47.191,50.4462,1.979,3.2553,30,
111,1,2,1,76,0,318.3402,105.7629,255.3135,0,0,0,1,0,0,0,318.3402,302.9234,2.0134,-15.4168,20,
111,1,2,1,77,0,106.6075,289.4992,167.7106,0,0,0,2,0,0,0,289.4992,285.5155,2.7568,-3.9838,30,
111,1,2,1,78,1,316.3664,228.7335,77.4394,2,3,1,2,1,0,0,228.7335,229.8169,2.035,1.0833,40,
111,1,2,1,79,0,108.9941,167.0244,137.4118,0,0,0,3,0,0,0,137.4118,121.7793,2.4724,-15.6325,20,
111,1,2,1,80,1,228.6191,18.284,77.5739,3,1,2,1,0,1,0,228.6191,136.3603,3.972,-92.2588,0,
111,1,2,1,81,1,349.2665,317.3364,49.1836,3,2,1,3,1,0,0,49.1836,30.0626,3.1595,-19.1209,20,
111,1,2,1,82,1,317.5743,19.9949,76.8866,3,1,2,3,1,0,0,76.8866,39.1363,1.9374,-37.7504,0,
111,1,2,1,83,0,106.4416,15.825,77.2793,0,0,0,1,0,0,0,106.4416,105.2356,2.1596,-1.206,40,
111,1,2,1,84,1,46.3343,225.3428,16.568,2,3,1,1,0,0,1,46.3343,47.038,4.0341,0.70366,40,
111,1,2,1,85,0,106.3698,138.2755,77.0353,0,0,0,1,0,0,0,106.3698,119.5497,2.8539,13.1799,20,
111,1,2,1,86,1,229.4564,256.0814,18.4177,3,2,1,3,1,0,0,18.4177,38.1465,3.0419,19.7288,20,
111,1,2,1,87,0,47.0084,136.669,256.3379,0,0,0,3,0,0,0,256.3379,26.2587,2.5211,129.9207,0,
111,1,2,1,88,0,165.9694,259.0404,49.9282,0,0,0,3,0,0,0,49.9282,40.4227,1.5971,-9.5055,30,
111,1,2,1,89,0,286.3771,227.098,17.985,0,0,0,2,0,0,0,227.098,224.7543,3.8678,-2.3437,40,
111,1,2,1,90,1,165.3123,15.8923,106.6913,3,2,1,3,1,0,0,106.6913,126.4578,3.2151,19.7665,20,
111,1,2,1,91,0,47.5111,168.683,225.5606,0,0,0,1,0,0,0,47.5111,198.5121,2.2497,151.001,0,
111,1,2,1,92,1,76.4371,229.5997,165.0303,1,3,2,1,1,0,0,76.4371,54.02,2.0416,-22.4171,10,
111,1,2,1,93,1,105.6268,287.1495,255.0818,1,3,2,1,1,0,0,105.6268,106.6221,1.1666,0.99524,40,
111,1,2,1,94,0,226.0151,18.975,199.8729,0,0,0,2,0,0,0,18.975,47.3359,2.5138,28.361,10,
111,1,2,1,95,1,257.4089,287.2294,198.9909,2,3,1,2,1,0,0,287.2294,308.5645,2.104,21.3351,10,
111,1,2,1,96,1,345.3147,139.6001,199.5308,2,3,1,1,0,0,1,345.3147,309.3939,1.7777,-35.9208,0,
111,1,2,1,97,0,257.2098,349.198,168.0913,0,0,0,3,0,0,0,168.0913,146.572,3.597,-21.5193,10,
111,1,2,1,98,1,285.0765,318.7534,75.3106,3,2,1,3,1,0,0,75.3106,60.6945,1.7638,-14.6161,20,
111,1,2,1,99,1,196.6344,135.5152,166.8521,1,2,3,1,1,0,0,196.6344,187.337,3.0621,-9.2975,30,
111,1,2,1,100,0,256.9666,17.1023,225.6856,0,0,0,3,0,0,0,225.6856,247.5772,2.1111,21.8916,10,
111,1,2,1,101,1,48.808,348.2557,16.7554,2,1,3,3,0,0,1,16.7554,18.7255,2.7707,1.9701,40,
111,1,2,1,102,1,196.7117,317.8315,258.2726,2,1,3,2,1,0,0,317.8315,318.1831,1.9582,0.35162,40,
111,1,2,1,103,0,109.5259,166.3226,229.7491,0,0,0,2,0,0,0,166.3226,121.7739,2.1526,-44.5487,0,
111,1,2,1,104,0,49.6735,226.8027,199.7386,0,0,0,1,0,0,0,49.6735,52.1228,3.8887,2.4493,40,
111,1,2,1,105,0,17.5412,259.2672,48.419,0,0,0,2,0,0,0,259.2672,242.1273,2.5138,-17.1398,20,
111,1,2,1,106,1,76.3878,165.5043,317.4946,1,3,2,1,1,0,0,76.3878,69.1417,4.2011,-7.2461,30,
111,1,2,1,107,0,317.5248,288.6106,258.8055,0,0,0,2,0,0,0,288.6106,277.0025,3.5483,-11.6081,30,
111,1,2,1,108,0,225.586,76.8997,48.8242,0,0,0,2,0,0,0,76.8997,61.4632,1.1525,-15.4365,20,
111,1,2,1,109,0,105.5768,227.506,289.0846,0,0,0,1,0,0,0,105.5768,222.8062,2.6176,117.2293,0,
111,1,2,1,110,1,77.625,287.6556,349.3669,1,2,3,1,1,0,0,77.625,68.3349,1.729,-9.2901,30,
111,1,2,1,111,1,48.7756,137.6306,169.2506,2,1,3,1,0,1,0,48.7756,58.4127,2.2776,9.6371,30,
111,1,2,1,112,1,196.7002,228.3195,48.6368,2,1,3,2,1,0,0,228.3195,228.2071,2.7152,-0.11238,40,
111,1,2,1,113,0,15.5643,198.2512,75.9544,0,0,0,1,0,0,0,15.5643,36.8677,4.1317,21.3033,10,
111,1,2,1,114,0,228.9358,345.9675,77.6546,0,0,0,3,0,0,0,77.6546,56.0155,2.1457,-21.6391,10,
111,1,2,1,115,0,258.7655,168.5152,106.2331,0,0,0,3,0,0,0,106.2331,69.9415,3.2845,-36.2916,0,
111,1,2,1,116,0,15.5148,79.4181,107.6112,0,0,0,1,0,0,0,15.5148,65.7552,2.6526,50.2403,0,
111,1,2,1,117,1,109.1522,198.3681,315.6973,2,3,1,2,1,0,0,198.3681,216.1963,2.3679,17.8282,20,
111,1,2,1,118,0,256.5109,226.4726,136.2991,0,0,0,2,0,0,0,226.4726,218.5873,2.3332,-7.8853,30,
111,1,2,1,119,0,285.2877,135.1063,76.449,0,0,0,2,0,0,0,135.1063,118.5302,3.8126,-16.5761,20,
111,1,2,1,120,1,346.9215,226.6007,256.9667,2,1,3,2,1,0,0,226.6007,227.3252,2.0488,0.72451,40,
111,1,3,2,121,0,259.1155,19.3721,79.9918,0,0,0,3,0,0,0,79.9918,51.5023,1.8606,-28.4895,10,
111,1,3,2,122,1,228.6716,19.9273,318.4939,1,2,3,2,0,1,0,19.9273,NaN,100000,999,0,
111,1,3,2,123,0,16.7771,137.1919,319.5439,0,0,0,3,0,0,0,319.5439,309.8597,1.4789,-9.6842,30,
111,1,3,2,124,0,196.9012,286.0929,108.6133,0,0,0,2,0,0,0,286.0929,282.8349,2.5693,-3.258,30,
111,1,3,2,125,1,195.0869,317.356,255.2304,2,1,3,2,1,0,0,317.356,307.4005,2.6386,-9.9556,30,
111,1,3,2,126,1,137.7151,286.7856,48.308,1,3,2,1,1,0,0,137.7151,112.0698,2.3748,-25.6453,10,
111,1,3,2,127,1,46.9945,226.2444,289.6767,3,2,1,3,1,0,0,289.6767,276.3014,2.236,-13.3752,20,
111,1,3,2,128,0,168.1491,257.3251,135.5459,0,0,0,2,0,0,0,257.3251,293.5946,1.8958,36.2695,0,
111,1,3,2,129,1,289.1691,198.0293,47.5896,2,3,1,2,1,0,0,198.0293,218.0963,3.916,20.067,20,
111,1,3,2,130,1,285.1747,348.8566,257.7026,3,1,2,2,0,0,1,348.8566,295.7226,2.0207,-53.1341,0,
111,1,3,2,131,0,199.1453,256.9438,225.8421,0,0,0,2,0,0,0,256.9438,246.4653,2.6877,-10.4785,30,
111,1,3,2,132,1,317.7223,195.411,107.9906,2,1,3,2,1,0,0,195.411,192.9431,3.4511,-2.468,40,
111,1,3,2,133,1,18.1363,286.0297,259.9009,1,3,2,2,0,0,1,286.0297,278.5026,2.701,-7.527,30,
111,1,3,2,134,1,136.3179,105.8739,316.8431,3,2,1,2,0,1,0,105.8739,NaN,100000,999,0,
111,1,3,2,135,0,136.8066,257.35,315.2939,0,0,0,3,0,0,0,315.2939,308.8598,2.1249,-6.4341,30,
111,1,3,2,136,0,135.5589,287.4592,77.3078,0,0,0,1,0,0,0,135.5589,123.4834,3.5206,-12.0755,20,
111,1,3,2,137,0,77.4983,227.9224,259.6238,0,0,0,3,0,0,0,259.6238,268.9997,2.2429,9.3759,30,
111,1,3,2,138,1,135.4817,15.6564,288.0495,1,3,2,1,1,0,0,135.4817,143.2031,2.7497,7.7214,30,
111,1,3,2,139,1,165.5533,138.2034,195.3601,3,1,2,3,1,0,0,195.3601,200.7512,3.4928,5.3911,30,
111,1,3,2,140,0,226.3889,105.4855,258.9141,0,0,0,1,0,0,0,226.3889,240.0696,3.3539,13.6808,20,
111,1,3,2,141,1,316.1998,229.638,138.8149,2,1,3,3,0,0,1,138.8149,114.4496,3.6248,-24.3653,10,
111,1,3,2,142,1,228.7839,289.0142,349.0156,3,2,1,2,0,1,0,289.0142,NaN,100000,999,0,
111,1,3,2,143,1,47.9719,285.7687,315.3131,2,1,3,3,0,0,1,315.3131,302.7536,1.3125,-12.5596,20,
111,1,3,2,144,1,15.9456,345.3543,285.1893,1,2,3,1,1,0,0,15.9456,18.5078,4.3466,2.5623,40,
111,1,3,2,145,0,257.1512,169.3563,318.5363,0,0,0,2,0,0,0,169.3563,146.4166,3.0762,-22.9397,10,
111,1,3,2,146,1,15.2378,49.0018,227.3339,1,3,2,1,1,0,0,15.2378,14.4201,3.2148,-0.81771,40,
111,1,3,2,147,0,316.2021,46.0129,226.7411,0,0,0,1,0,0,0,316.2021,303.6936,2.9235,-12.5086,20,
111,1,3,2,148,1,45.168,78.0781,195.5609,2,3,1,2,1,0,0,78.0781,68.7228,1.9095,-9.3553,30,
111,1,3,2,149,1,79.0614,18.3341,46.9089,2,1,3,2,1,0,0,18.3341,18.1626,2.854,-0.17158,40,
111,1,3,2,150,1,75.1898,319.612,256.8657,3,1,2,1,0,1,0,75.1898,NaN,100000,999,0,
111,1,3,2,151,1,105.108,136.7051,196.922,2,3,1,2,1,0,0,136.7051,138.1982,3.2081,1.4932,40,
111,1,3,2,152,1,195.0824,15.7627,109.4977,1,2,3,1,1,0,0,195.0824,194.7312,2.5762,-0.35113,40,
111,1,3,2,153,1,49.6062,18.9082,286.2096,2,1,3,2,1,0,0,18.9082,17.7042,3.7012,-1.2041,40,
111,1,3,2,154,0,347.6564,78.106,46.4017,0,0,0,2,0,0,0,78.106,70.751,2.5415,-7.355,30,
111,1,3,2,155,0,288.4209,108.74,16.9582,0,0,0,3,0,0,0,16.9582,20.9206,2.0897,3.9624,30,
111,1,3,2,156,1,198.8892,137.8473,165.1055,3,2,1,3,1,0,0,165.1055,212.728,2.0485,47.6225,0,
111,1,3,2,157,0,75.1113,106.5056,346.4903,0,0,0,3,0,0,0,346.4903,325.7594,3.2085,-20.7309,20,
111,1,3,2,158,1,165.0545,49.0987,195.1713,3,2,1,3,1,0,0,195.1713,192.0195,3.0556,-3.1518,30,
111,1,3,2,159,1,109.1325,285.0534,255.4778,3,2,1,3,1,0,0,255.4778,238.3762,2.125,-17.1015,20,
111,1,3,2,160,0,285.6432,316.1039,257.2678,0,0,0,3,0,0,0,257.2678,246.4275,2.0693,-10.8403,30,
111,1,3,2,161,1,106.1674,46.4605,138.3688,2,1,3,2,1,0,0,46.4605,49.7655,1.7846,3.305,30,
111,1,3,2,162,1,318.877,196.767,139.1947,3,2,1,3,1,0,0,139.1947,158.3398,2.3609,19.145,20,
111,1,3,2,163,1,317.6756,17.5867,76.2786,1,3,2,3,0,1,0,76.2786,NaN,100000,999,0,
111,1,3,2,164,1,79.5412,286.426,255.6635,3,1,2,3,1,0,0,255.6635,241.6718,2.361,-13.9917,20,
111,1,3,2,165,1,19.3541,226.667,47.3152,2,1,3,2,1,0,0,226.667,230.8868,2.3887,4.2198,30,
111,1,3,2,166,1,347.7523,287.8153,316.523,3,2,1,3,1,0,0,316.523,312.6986,1.6179,-3.8244,30,
111,1,3,2,167,1,288.0835,346.0155,108.388,3,2,1,3,1,0,0,108.388,94.7972,2.5762,-13.5908,20,
111,1,3,2,168,1,228.9714,17.4431,165.6529,2,1,3,2,1,0,0,17.4431,40.8418,2.5832,23.3987,10,
111,1,3,2,169,1,197.16,259.6526,137.5394,1,3,2,1,1,0,0,197.16,216.9369,2.1596,19.7768,20,
111,1,3,2,170,1,286.7386,18.3336,197.2723,2,3,1,2,1,0,0,18.3336,25.6923,3.229,7.3587,30,
111,1,3,2,171,0,45.0451,345.8454,256.0319,0,0,0,3,0,0,0,256.0319,236.4838,3.3956,-19.5481,20,
111,1,3,2,172,1,76.3501,257.4088,286.1034,3,2,1,3,1,0,0,286.1034,301.6587,1.4163,15.5554,20,
111,1,3,2,173,1,348.0693,226.4195,287.5407,2,3,1,2,1,0,0,226.4195,231.4558,2.7567,5.0363,30,
111,1,3,2,174,1,47.3497,198.9559,107.0938,3,1,2,3,1,0,0,107.0938,106.9981,2.0762,-0.095768,40,
111,1,3,2,175,1,139.5776,257.6101,315.2598,3,1,2,1,0,1,0,139.5776,NaN,100000,999,0,
111,1,3,2,176,1,317.2746,198.2531,169.5221,3,1,2,1,0,1,0,317.2746,NaN,100000,999,0,
111,1,3,2,177,1,78.0946,289.8516,108.346,2,1,3,2,1,0,0,289.8516,287.8601,2.7498,-1.9915,40,
111,1,3,2,178,0,77.5057,315.7093,347.0319,0,0,0,2,0,0,0,315.7093,301.74,2.979,-13.9694,20,
111,1,3,2,179,1,169.1646,347.5077,255.5137,1,3,2,1,1,0,0,169.1646,149.8282,2.3887,-19.3364,20,
111,1,3,2,180,0,315.7681,196.5423,75.6546,0,0,0,3,0,0,0,75.6546,59.0401,2.7568,-16.6145,20,
111,1,4,2,181,0,168.0693,198.2604,318.0067,0,0,0,1,0,0,0,168.0693,153.4957,1.361,-14.5736,20,
111,1,4,2,182,0,226.9859,346.3891,136.8093,0,0,0,2,0,0,0,346.3891,327.6433,1.9721,-18.7458,20,
111,1,4,2,183,1,108.2279,77.5562,318.3105,2,1,3,2,1,0,0,77.5562,62.7459,1.0416,-14.8103,20,
111,1,4,2,184,1,226.3128,75.3932,316.1006,2,3,1,3,0,1,0,316.1006,NaN,100000,999,0,
111,1,4,2,185,1,225.0231,195.9423,138.8982,2,1,3,2,1,0,0,195.9423,209.7386,2.3814,13.7963,20,
111,1,4,2,186,1,288.3429,137.1089,198.5138,1,3,2,1,1,0,0,288.3429,289.8584,2.4929,1.5155,40,
111,1,4,2,187,0,346.2418,138.6184,227.1619,0,0,0,1,0,0,0,346.2418,297.6494,2.4721,-48.5923,0,
111,1,4,2,188,1,136.522,316.7142,48.2967,2,1,3,1,0,1,0,136.522,NaN,100000,999,0,
111,1,4,2,189,0,18.38,319.3721,136.6547,0,0,0,2,0,0,0,319.3721,300.3617,2.5762,-19.0104,20,
111,1,4,2,190,1,345.7102,136.0875,288.8873,2,1,3,2,1,0,0,136.0875,116.0549,2.4721,-20.0326,20,
111,1,4,2,191,1,46.6209,345.8303,319.9904,2,3,1,3,0,1,0,319.9904,NaN,100000,999,0,
111,1,4,2,192,0,227.2501,195.8128,168.8246,0,0,0,2,0,0,0,195.8128,194.755,3.625,-1.0578,40,
111,1,4,2,193,0,137.7538,45.1055,348.6839,0,0,0,2,0,0,0,45.1055,59.5538,1.0763,14.4483,20,
111,1,4,2,194,0,225.8808,76.1622,348.5751,0,0,0,1,0,0,0,225.8808,232.6968,2.3263,6.816,30,
111,1,4,2,195,1,165.3812,286.8469,259.0312,3,2,1,3,1,0,0,259.0312,287.2817,2.1108,28.2505,10,
111,1,4,2,196,1,285.8175,136.6198,319.0451,1,3,2,1,1,0,0,285.8175,115.9304,2.0624,-169.8871,0,
111,1,4,2,197,1,256.5306,136.4539,17.1526,3,1,2,1,0,1,0,256.5306,NaN,100000,999,0,
111,1,4,2,198,1,168.5928,137.1222,46.2418,3,1,2,3,1,0,0,46.2418,41.9747,2.4652,-4.2671,30,
111,1,4,2,199,0,109.2626,289.9196,255.2693,0,0,0,1,0,0,0,109.2626,104.3574,3.0415,-4.9052,30,
111,1,4,2,200,1,136.6332,196.8498,317.464,3,1,2,2,0,0,1,196.8498,242.6978,2.1248,45.848,0,
111,1,4,2,201,0,15.2638,49.8001,228.361,0,0,0,1,0,0,0,15.2638,22.4586,3.2567,7.1948,30,
111,1,4,2,202,0,169.6403,19.403,288.0954,0,0,0,2,0,0,0,19.403,20.6658,2.597,1.2628,40,
111,1,4,2,203,0,107.8175,135.7213,349.2803,0,0,0,1,0,0,0,107.8175,97.8213,2.7915,-9.9962,30,
111,1,4,2,204,0,17.5607,137.5771,197.3447,0,0,0,3,0,0,0,197.3447,207.9178,3.2772,10.5731,30,
111,1,4,2,205,1,15.3174,137.9558,49.4988,2,3,1,1,0,0,1,15.3174,23.8262,3.0763,8.5088,30,
111,1,4,2,206,1,257.6961,289.6863,136.2781,2,3,1,2,1,0,0,289.6863,298.735,2.5971,9.0487,30,
111,1,4,2,207,0,228.2249,256.091,138.4745,0,0,0,3,0,0,0,138.4745,88.0811,3.1387,-50.3934,0,
111,1,4,2,208,1,19.1114,286.5951,318.2852,1,3,2,1,1,0,0,19.1114,14.1294,1.8957,-4.982,30,
111,1,4,2,209,1,108.1345,49.2601,77.4513,2,1,3,2,1,0,0,49.2601,54.6219,1.6319,5.3618,30,
111,1,4,2,210,1,18.7848,106.6625,229.4028,1,3,2,1,1,0,0,18.7848,14.6199,2.3053,-4.1649,30,
111,1,4,2,211,1,108.9877,198.9369,255.4779,2,3,1,2,1,0,0,198.9369,163.7986,2.6182,-35.1384,0,
111,1,4,2,212,1,287.6485,16.1093,108.7409,2,1,3,2,1,0,0,16.1093,12.2332,2.1388,-3.8761,30,
111,1,4,2,213,1,105.0812,136.0001,199.2925,3,2,1,1,0,0,1,105.0812,96.3794,2.3472,-8.7018,30,
111,1,4,2,214,0,15.0584,198.6422,47.0765,0,0,0,3,0,0,0,47.0765,16.7578,2.8054,-30.3187,0,
111,1,4,2,215,0,79.6144,317.3332,16.8441,0,0,0,3,0,0,0,16.8441,24.3493,2.3888,7.5053,30,
111,1,4,2,216,0,46.5986,198.3553,347.6198,0,0,0,2,0,0,0,198.3553,203.8544,3.4299,5.4991,30,
111,1,4,2,217,0,75.0974,348.0374,167.694,0,0,0,2,0,0,0,348.0374,336.73,1.785,-11.3074,30,
111,1,4,2,218,0,229.3881,318.0286,348.2341,0,0,0,1,0,0,0,229.3881,220.2235,2.5971,-9.1646,30,
111,1,4,2,219,1,255.3654,18.7902,135.2536,3,2,1,1,0,0,1,255.3654,215.3703,1.9998,-39.9952,0,
111,1,4,2,220,0,319.0146,258.651,168.9736,0,0,0,3,0,0,0,168.9736,156.5526,2.9998,-12.421,20,
111,1,4,2,221,1,316.7372,75.6977,286.0812,2,1,3,2,1,0,0,75.6977,73.0856,1.6801,-2.6121,40,
111,1,4,2,222,0,45.1275,316.1684,259.8939,0,0,0,1,0,0,0,45.1275,61.7163,4.7702,16.5888,20,
111,1,4,2,223,1,75.7855,108.128,139.6292,1,3,2,2,0,0,1,108.128,101.295,2.236,-6.833,30,
111,1,4,2,224,1,196.5227,258.358,346.0222,3,1,2,3,1,0,0,346.0222,323.2709,2.354,-22.7513,10,
111,1,4,2,225,1,48.9004,168.5124,227.1034,1,2,3,1,1,0,0,48.9004,20.9329,2.3263,-27.9675,10,
111,1,4,2,226,1,317.9409,46.2309,196.9919,3,1,2,3,1,0,0,196.9919,231.8319,1.9374,34.8399,0,
111,1,4,2,227,1,225.3126,345.1289,316.6706,1,3,2,1,1,0,0,225.3126,209.8845,1.4162,-15.4281,20,
111,1,4,2,228,0,286.9961,135.3096,166.4648,0,0,0,3,0,0,0,166.4648,305.7245,3.5137,139.2597,0,
111,1,4,2,229,0,229.791,79.0882,287.1195,0,0,0,2,0,0,0,79.0882,66.3501,2.2568,-12.7381,20,
111,1,4,2,230,1,256.2072,168.4799,195.0763,2,1,3,1,0,1,0,256.2072,NaN,100000,999,0,
111,1,4,2,231,1,315.0164,255.2243,165.9456,2,3,1,2,1,0,0,255.2243,244.405,2.4858,-10.8193,30,
111,1,4,2,232,1,346.3173,229.9929,18.5527,2,3,1,2,1,0,0,229.9929,228.4186,2.979,-1.5744,40,
111,1,4,2,233,0,196.3801,76.5574,288.3328,0,0,0,1,0,0,0,196.3801,191.7015,2.0275,-4.6786,30,
111,1,4,2,234,1,137.227,347.3276,318.6834,2,3,1,3,0,1,0,318.6834,NaN,100000,999,0,
111,1,4,2,235,1,109.2114,78.9399,257.6819,1,3,2,1,1,0,0,109.2114,98.6139,2.2984,-10.5975,30,
111,1,4,2,236,1,19.2867,228.0358,255.9856,1,2,3,1,1,0,0,19.2867,21.0908,2.6804,1.8041,40,
111,1,4,2,237,1,139.962,18.3997,349.6745,3,1,2,1,0,1,0,139.962,NaN,100000,999,0,
111,1,4,2,238,1,106.4416,225.9318,259.7367,3,2,1,2,0,1,0,225.9318,NaN,100000,999,0,
111,1,4,2,239,1,108.8845,315.6691,48.501,1,2,3,1,1,0,0,108.8845,105.5945,1.7914,-3.29,30,
111,1,4,2,240,0,76.7845,165.5625,256.2754,0,0,0,3,0,0,0,256.2754,259.9075,2.8192,3.6321,30,
111,1,5,2,241,1,228.2911,16.305,196.4227,1,3,2,2,0,0,1,16.305,47.3002,1.7846,30.9952,0,
111,1,5,2,242,0,227.3688,79.2558,19.6459,0,0,0,3,0,0,0,19.6459,26.1786,1.993,6.5327,30,
111,1,5,2,243,1,16.426,259.5793,288.3534,2,3,1,1,0,0,1,16.426,200.2194,2.2224,-176.2066,0,
111,1,5,2,244,0,229.6716,108.9759,77.2713,0,0,0,2,0,0,0,108.9759,92.252,2.7915,-16.7239,20,
111,1,5,2,245,1,259.5596,136.7567,46.8618,3,2,1,3,1,0,0,46.8618,58.8594,2.0553,11.9976,30,
111,1,5,2,246,0,228.1282,15.9025,195.1504,0,0,0,1,0,0,0,228.1282,213.9132,1.3263,-14.215,20,
111,1,5,2,247,1,259.7368,16.5834,137.8908,1,2,3,2,0,1,0,16.5834,NaN,100000,999,0,
111,1,5,2,248,1,199.7466,319.7965,19.9497,3,1,2,2,0,0,1,319.7965,311.7198,1.5138,-8.0767,30,
111,1,5,2,249,1,199.978,259.3475,169.7395,3,1,2,3,1,0,0,169.7395,192.4243,3.2359,22.6848,10,
111,1,5,2,250,1,49.2368,226.2849,286.886,2,1,3,2,1,0,0,226.2849,230.7988,2.3193,4.5139,30,
111,1,5,2,251,1,78.4787,138.4745,289.2668,3,2,1,3,1,0,0,289.2668,292.6725,0.95822,3.4057,30,
111,1,5,2,252,1,285.1528,317.72,19.1175,1,2,3,1,1,0,0,285.1528,297.9654,3.0484,12.8126,20,
111,1,5,2,253,1,75.3009,349.3086,225.3544,2,1,3,2,1,0,0,349.3086,310.7152,2.0207,-38.5934,0,
111,1,5,2,254,0,135.38,105.1417,197.1675,0,0,0,1,0,0,0,135.38,137.2896,2.8749,1.9096,40,
111,1,5,2,255,0,79.8943,108.3037,19.2312,0,0,0,1,0,0,0,79.8943,81.9962,2.5345,2.1019,40,
111,1,5,2,256,1,76.2625,197.1947,17.9359,1,3,2,1,1,0,0,76.2625,78.8111,2.2915,2.5486,40,
111,1,5,2,257,1,285.1975,227.1738,165.8719,1,3,2,2,0,0,1,227.1738,226.9771,4.5763,-0.19668,40,
111,1,5,2,258,0,139.4511,49.6629,195.6468,0,0,0,2,0,0,0,49.6629,58.2053,1.6318,8.5424,30,
111,1,5,2,259,1,225.566,315.3581,197.9051,3,2,1,3,1,0,0,197.9051,222.8888,0.73592,24.9838,10,
111,1,5,2,260,1,19.5103,78.3466,135.8569,3,1,2,3,1,0,0,135.8569,101.0247,2.4025,-34.8322,0,
111,1,5,2,261,1,76.506,47.9148,285.5384,3,2,1,3,1,0,0,285.5384,255.0689,2.354,-30.4695,0,
111,1,5,2,262,0,108.7769,168.2008,346.5331,0,0,0,2,0,0,0,168.2008,146.4413,2.2223,-21.7594,10,
111,1,5,2,263,0,16.8902,109.4934,138.9438,0,0,0,3,0,0,0,138.9438,100.3013,3.3123,-38.6425,0,
111,1,5,2,264,1,78.1704,347.7574,258.8614,1,3,2,3,0,1,0,258.8614,NaN,100000,999,0,
111,1,5,2,265,0,258.6754,49.5882,15.153,0,0,0,3,0,0,0,15.153,30.4909,3.1873,15.3379,20,
111,1,5,2,266,0,139.4723,165.3628,108.1772,0,0,0,1,0,0,0,139.4723,149.4106,1.5485,9.9382,30,
111,1,5,2,267,0,287.6335,48.4547,345.2733,0,0,0,1,0,0,0,287.6335,278.022,3.4235,-9.6115,30,
111,1,5,2,268,1,79.5617,109.5881,228.0927,2,3,1,2,1,0,0,109.5881,108.7705,2.4929,-0.8176,40,
111,1,5,2,269,1,256.2028,226.4117,78.9937,1,2,3,2,0,1,0,226.4117,NaN,100000,999,0,
111,1,5,2,270,1,195.7787,347.0457,228.4683,2,3,1,1,0,0,1,195.7787,207.6785,2.3471,11.8997,30,
111,1,5,2,271,1,196.4051,228.0945,166.1022,2,3,1,1,0,0,1,196.4051,197.1437,2.9998,0.73856,40,
111,1,5,2,272,0,106.9624,45.3351,198.8926,0,0,0,2,0,0,0,45.3351,58.9941,1.4789,13.659,20,
111,1,5,2,273,1,319.0539,287.8236,165.2784,3,2,1,3,1,0,0,165.2784,132.1812,2.68,-33.0972,0,
111,1,5,2,274,1,347.212,197.3353,135.0519,1,2,3,1,1,0,0,347.212,342.0824,3.8678,-5.1297,30,
111,1,5,2,275,1,197.5864,138.251,169.3563,3,1,2,3,1,0,0,169.3563,166.7535,1.9165,-2.6027,40,
111,1,5,2,276,1,78.3333,196.916,348.4661,3,2,1,3,1,0,0,348.4661,334.097,2.3888,-14.3691,20,
111,1,5,2,277,0,345.5161,229.0877,19.9005,0,0,0,1,0,0,0,345.5161,351.1528,3.6179,5.6367,30,
111,1,5,2,278,1,137.058,255.2561,106.5764,1,3,2,3,0,1,0,106.5764,NaN,100000,999,0,
111,1,5,2,279,1,316.2382,79.9271,105.6379,3,2,1,1,0,0,1,316.2382,121.7167,2.6526,165.4785,0,
111,1,5,2,280,0,229.4108,349.2476,197.8437,0,0,0,3,0,0,0,197.8437,241.3131,2.6806,43.4694,0,
111,1,5,2,281,0,229.4693,315.8155,49.9449,0,0,0,1,0,0,0,229.4693,227.4907,3.0831,-1.9786,40,
111,1,5,2,282,1,227.5872,18.508,255.2254,2,3,1,3,0,1,0,255.2254,NaN,100000,999,0,
111,1,5,2,283,0,315.497,78.0433,109.0218,0,0,0,3,0,0,0,109.0218,101.0793,3.722,-7.9424,30,
111,1,5,2,284,1,18.7949,169.6158,289.3606,1,2,3,1,1,0,0,18.7949,16.5248,3.1457,-2.2701,40,
111,1,5,2,285,1,199.3241,45.7012,348.2857,1,3,2,1,1,0,0,199.3241,194.5062,1.5277,-4.8179,30,
111,1,5,2,286,0,288.9333,195.5999,77.0599,0,0,0,2,0,0,0,195.5999,98.8408,3.7289,-96.7591,0,
111,1,5,2,287,1,107.9219,47.6928,319.9534,3,2,1,3,1,0,0,319.9534,310.5555,1.6391,-9.3979,30,
111,1,5,2,288,0,138.8452,256.7315,319.8373,0,0,0,1,0,0,0,138.8452,142.5622,2.7776,3.717,30,
111,1,5,2,289,0,78.9467,46.7546,196.1009,0,0,0,3,0,0,0,196.1009,247.6298,4.6455,51.5289,0,
111,1,5,2,290,1,346.2992,48.4378,77.1625,1,2,3,1,1,0,0,346.2992,338.4173,2.9512,-7.882,30,
111,1,5,2,291,0,47.5361,168.0629,318.4329,0,0,0,2,0,0,0,168.0629,152.9885,4.2083,-15.0744,20,
111,1,5,2,292,1,15.2567,229.1158,105.1847,2,1,3,2,1,0,0,229.1158,216.6627,3.3192,-12.4531,20,
111,1,5,2,293,0,285.3355,346.8281,19.945,0,0,0,2,0,0,0,346.8281,329.7814,4.2637,-17.0467,20,
111,1,5,2,294,0,257.6577,228.2202,197.0375,0,0,0,2,0,0,0,228.2202,229.9202,3.4096,1.7,40,
111,1,5,2,295,0,199.4218,139.4775,15.3904,0,0,0,2,0,0,0,139.4775,119.0808,2.4929,-20.3967,20,
111,1,5,2,296,1,45.5671,195.2449,226.3806,1,2,3,2,0,1,0,195.2449,NaN,100000,999,0,
111,1,5,2,297,0,349.7923,108.436,166.3002,0,0,0,2,0,0,0,108.436,104.8125,2.5206,-3.6235,30,
111,1,5,2,298,1,316.3041,199.2829,227.7306,1,2,3,1,1,0,0,316.3041,306.791,2.8956,-9.5131,30,
111,1,5,2,299,0,195.2795,46.0652,78.8827,0,0,0,2,0,0,0,46.0652,58.6924,1.2638,12.6272,20,
111,1,5,2,300,1,315.0698,346.9085,289.5356,2,3,1,2,1,0,0,346.9085,332.0398,3.7914,-14.8687,20,
111,1,6,2,301,1,79.7841,319.5073,168.5029,1,2,3,3,0,0,1,168.5029,247.1213,2.2293,78.6184,0,
111,1,6,2,302,1,109.2112,169.8573,285.7143,1,2,3,1,1,0,0,109.2112,120.0995,1.8194,10.8884,30,
111,1,6,2,303,0,168.2753,226.9711,345.9674,0,0,0,1,0,0,0,168.2753,151.8324,2.257,-16.4428,20,
111,1,6,2,304,0,15.1918,169.2424,75.5724,0,0,0,1,0,0,0,15.1918,183.2129,3.0344,168.0211,0,
111,1,6,2,305,1,18.2956,318.6955,346.8718,2,3,1,1,0,0,1,18.2956,29.8281,2.5624,11.5325,30,
111,1,6,2,306,1,289.9226,49.8966,138.096,1,2,3,1,1,0,0,289.9226,293.2616,2.7916,3.3391,30,
111,1,6,2,307,1,345.7543,78.3395,316.6828,1,3,2,1,1,0,0,345.7543,335.5121,3.1873,-10.2421,30,
111,1,6,2,308,0,287.5451,135.1288,169.8776,0,0,0,2,0,0,0,135.1288,111.0065,4.4441,-24.1223,10,
111,1,6,2,309,0,255.8467,108.1058,137.1231,0,0,0,1,0,0,0,255.8467,275.491,2.0767,19.6443,20,
111,1,6,2,310,0,288.4203,137.4371,106.7839,0,0,0,3,0,0,0,106.7839,102.8433,2.7012,-3.9406,30,
111,1,6,2,311,0,229.9133,197.8603,16.1625,0,0,0,2,0,0,0,197.8603,197.118,4.0344,-0.7423,40,
111,1,6,2,312,0,256.8618,16.533,49.4882,0,0,0,2,0,0,0,16.533,21.3517,3.7636,4.8187,30,
111,1,6,2,313,1,105.2382,348.4136,317.3775,3,1,2,3,1,0,0,317.3775,310.5526,1.2152,-6.8249,30,
111,1,6,2,314,1,46.5277,198.6016,289.2731,1,3,2,1,1,0,0,46.5277,22.5462,3.0137,-23.9815,10,
111,1,6,2,315,0,76.2584,47.9057,229.0416,0,0,0,1,0,0,0,76.2584,72.9152,2.2777,-3.3433,30,
111,1,6,2,316,1,15.2076,226.9566,199.3315,1,2,3,3,0,0,1,199.3315,216.8722,3.8677,17.5407,20,
111,1,6,2,317,0,105.538,18.4729,48.7088,0,0,0,1,0,0,0,105.538,118.6738,2.486,13.1358,20,
111,1,6,2,318,0,78.8217,168.5945,49.4033,0,0,0,2,0,0,0,168.5945,131.7742,6.2565,-36.8203,0,
111,1,6,2,319,0,17.4996,137.615,255.098,0,0,0,1,0,0,0,17.4996,15.3428,1.7774,-2.1569,40,
111,1,6,2,320,1,259.6594,195.4038,225.3495,2,3,1,2,1,0,0,195.4038,203.172,2.1805,7.7682,30,
111,1,6,2,321,1,138.7434,316.0323,258.3285,3,2,1,3,1,0,0,258.3285,285.5249,1.8539,27.1963,10,
111,1,6,2,322,1,226.0773,136.1014,199.4504,2,1,3,2,1,0,0,136.1014,111.1806,3.0207,-24.9208,10,
111,1,6,2,323,0,106.6549,46.057,18.1284,0,0,0,3,0,0,0,18.1284,14.2085,2.0901,-3.9199,30,
111,1,6,2,324,0,75.7454,17.4716,229.2435,0,0,0,3,0,0,0,229.2435,232.5015,4.451,3.2581,30,
111,1,6,2,325,0,227.1365,106.384,169.8902,0,0,0,3,0,0,0,169.8902,145.6737,2.5276,-24.2165,10,
111,1,6,2,326,0,136.7248,289.6397,225.1506,0,0,0,3,0,0,0,225.1506,247.6719,2.1665,22.5213,10,
111,1,6,2,327,1,226.6167,345.3252,106.8691,1,2,3,2,0,1,0,345.3252,NaN,100000,999,0,
111,1,6,2,328,1,137.1461,196.9953,105.3165,2,1,3,2,1,0,0,196.9953,216.1641,1.9238,19.1689,20,
111,1,6,2,329,0,165.379,347.1849,316.3581,0,0,0,1,0,0,0,165.379,155.9381,2.007,-9.4408,30,
111,1,6,2,330,1,198.6708,47.4609,167.0092,3,1,2,2,0,0,1,47.4609,45.3651,1.09,-2.0958,40,
111,1,6,2,331,0,257.8686,48.9896,348.1638,0,0,0,1,0,0,0,257.8686,260.8336,2.4721,2.965,40,
111,1,6,2,332,0,45.5781,76.0204,105.5813,0,0,0,1,0,0,0,45.5781,248.5746,3.3609,-157.0036,0,
111,1,6,2,333,1,135.3108,108.4758,285.0103,1,2,3,3,0,0,1,285.0103,291.3405,2.5831,6.3302,30,
111,1,6,2,334,0,227.9536,315.0231,15.1538,0,0,0,3,0,0,0,15.1538,13.5076,2.2637,-1.6462,40,
111,1,6,2,335,1,49.2546,107.1262,77.872,1,2,3,1,1,0,0,49.2546,196.8442,1.3126,147.5896,0,
111,1,6,2,336,1,348.9192,315.0932,109.5136,2,3,1,2,1,0,0,315.0932,292.3622,1.9166,-22.731,10,
111,1,6,2,337,1,17.6051,135.8951,258.0446,1,3,2,1,1,0,0,17.6051,11.6887,2.3957,-5.9164,30,
111,1,6,2,338,0,166.9995,199.6776,317.3812,0,0,0,1,0,0,0,166.9995,164.89,1.0833,-2.1095,40,
111,1,6,2,339,0,135.6205,47.0353,285.3385,0,0,0,3,0,0,0,285.3385,287.649,1.4096,2.3105,40,
111,1,6,2,340,1,109.7587,15.5682,75.5864,3,1,2,2,0,0,1,15.5682,29.6105,2.6665,14.0423,20,
111,1,6,2,341,1,15.0025,285.5097,106.8519,3,1,2,3,1,0,0,106.8519,71.0156,1.7705,-35.8363,0,
111,1,6,2,342,0,138.1121,78.2913,105.8854,0,0,0,2,0,0,0,78.2913,75.6606,1.8402,-2.6308,40,
111,1,6,2,343,1,287.1474,78.8986,166.9833,1,2,3,2,0,1,0,78.8986,NaN,100000,999,0,
111,1,6,2,344,1,138.8128,289.8301,109.6494,3,1,2,3,1,0,0,109.6494,99.5531,2.2711,-10.0964,30,
111,1,6,2,345,0,48.0687,106.7289,228.6132,0,0,0,2,0,0,0,106.7289,96.821,2.7152,-9.9079,30,
111,1,6,2,346,1,16.059,46.6451,78.8117,2,3,1,3,0,1,0,78.8117,NaN,100000,999,0,
111,1,6,2,347,1,319.6437,347.9149,165.0771,1,2,3,1,1,0,0,319.6437,327.626,1.8611,7.9822,30,
111,1,6,2,348,1,49.2638,197.4076,16.3615,1,2,3,3,0,0,1,16.3615,24.5482,2.5554,8.1867,30,
111,1,6,2,349,1,168.5688,105.5118,137.2364,3,1,2,3,1,0,0,137.2364,102.3515,2.4717,-34.885,0,
111,1,6,2,350,1,256.5323,289.1405,199.0395,3,1,2,3,1,0,0,199.0395,235.5612,1.2152,36.5217,0,
111,1,6,2,351,0,289.3933,257.0109,317.8066,0,0,0,1,0,0,0,289.3933,296.693,1.7361,7.2997,30,
111,1,6,2,352,0,45.738,169.6035,199.6473,0,0,0,1,0,0,0,45.738,26.746,2.5832,-18.992,20,
111,1,6,2,353,1,75.9207,225.0509,15.4296,2,3,1,2,1,0,0,225.0509,225.6339,2.4374,0.58296,40,
111,1,6,2,354,1,166.8589,226.9144,46.2815,3,2,1,3,1,0,0,46.2815,43.716,1.9235,-2.5655,40,
111,1,6,2,355,0,255.2989,138.0798,107.8197,0,0,0,3,0,0,0,107.8197,298.8276,1.4653,-168.9921,0,
111,1,6,2,356,1,288.9209,349.9041,78.4497,1,3,2,1,1,0,0,288.9209,295.4254,1.6527,6.5045,30,
111,1,6,2,357,1,228.5225,288.6814,78.2834,2,1,3,3,0,0,1,78.2834,52.2679,1.4374,-26.0156,10,
111,1,6,2,358,0,258.4428,139.2845,199.5032,0,0,0,3,0,0,0,199.5032,245.1706,1.6041,45.6674,0,
111,1,6,2,359,0,75.109,109.102,226.4375,0,0,0,2,0,0,0,109.102,69.0458,1.5694,-40.0561,0,
111,1,6,2,360,0,228.5207,257.1121,199.7893,0,0,0,3,0,0,0,199.7893,208.9603,3.1249,9.171,30,
111,1,7,1,361,1,348.6401,108.1069,135.629,2,1,3,2,1,0,0,108.1069,111.2088,1.368,3.1019,30,
111,1,7,1,362,1,165.9707,77.9004,136.2374,1,3,2,2,0,0,1,77.9004,58.5174,3.8468,-19.383,20,
111,1,7,1,363,1,229.1241,195.9179,256.9655,1,2,3,2,0,1,0,195.9179,239.767,2.8679,43.849,0,
111,1,7,1,364,0,165.5695,109.6809,78.4418,0,0,0,2,0,0,0,109.6809,103.4585,2.3749,-6.2224,30,
111,1,7,1,365,0,166.3811,318.0762,16.4743,0,0,0,3,0,0,0,16.4743,343.2864,2.7985,-33.1879,0,
111,1,7,1,366,0,315.405,165.8073,195.459,0,0,0,1,0,0,0,315.405,336.4102,3.3192,21.0052,10,
111,1,7,1,367,1,109.6495,47.4527,18.9816,1,3,2,1,1,0,0,109.6495,121.2684,1.0969,11.6189,30,
111,1,7,1,368,1,315.9086,169.1649,17.0315,3,1,2,3,1,0,0,17.0315,353.3601,2.2498,-23.6714,10,
111,1,7,1,369,0,107.3031,169.6046,349.4309,0,0,0,2,0,0,0,169.6046,166.5144,3.1665,-3.0902,30,
111,1,7,1,370,1,108.4366,228.0565,165.4117,2,1,3,3,0,0,1,165.4117,154.4428,3.1456,-10.9689,30,
111,1,7,1,371,1,316.0868,15.5768,45.4294,3,1,2,1,0,1,0,316.0868,198.3931,3.111,-117.6937,0,
111,1,7,1,372,0,169.7511,317.414,197.1645,0,0,0,3,0,0,0,197.1645,198.2627,1.8887,1.0982,40,
111,1,7,1,373,0,135.5719,46.7905,318.9267,0,0,0,1,0,0,0,135.5719,146.0597,1.979,10.4878,30,
111,1,7,1,374,1,346.8346,19.0539,319.4885,2,1,3,1,0,1,0,346.8346,354.2518,3.5275,7.4172,30,
111,1,7,1,375,0,45.1252,77.8716,18.6469,0,0,0,2,0,0,0,77.8716,68.9824,1.035,-8.8892,30,
111,1,7,1,376,1,317.5322,107.8856,259.3953,1,2,3,2,0,1,0,107.8856,77.9296,1.9027,-29.956,10,
111,1,7,1,377,1,76.9089,199.9239,16.0256,1,3,2,3,0,1,0,16.0256,267.3141,2.0485,-108.7116,0,
111,1,7,1,378,1,345.0754,165.4797,78.9348,3,2,1,3,1,0,0,78.9348,71.8168,2.7984,-7.118,30,
111,1,7,1,379,0,109.1753,197.4117,135.2972,0,0,0,1,0,0,0,109.1753,117.3827,2.4719,8.2074,30,
111,1,7,1,380,1,196.7345,169.6713,346.8693,3,2,1,3,1,0,0,346.8693,341.2116,2.5137,-5.6577,30,
111,1,7,1,381,0,107.2397,46.175,135.3356,0,0,0,2,0,0,0,46.175,58.6105,1.2985,12.4355,20,
111,1,7,1,382,0,226.7344,348.1009,317.1787,0,0,0,3,0,0,0,317.1787,294.9844,1.0833,-22.1943,10,
111,1,7,1,383,1,195.1111,168.29,137.2932,3,2,1,3,1,0,0,137.2932,154.3433,2.6804,17.0501,20,
111,1,7,1,384,0,347.3584,46.9958,19.5556,0,0,0,2,0,0,0,46.9958,43.3083,1.7777,-3.6874,30,
111,1,7,1,385,1,319.1758,109.2633,258.2195,2,1,3,2,1,0,0,109.2633,102.9859,2.0416,-6.2774,30,
111,1,7,1,386,1,197.0324,288.9135,137.166,3,1,2,2,0,0,1,288.9135,264.3923,3.0345,-24.5212,10,
111,1,7,1,387,0,348.7326,75.5152,105.2421,0,0,0,2,0,0,0,75.5152,76.1424,3.5136,0.62721,40,
111,1,7,1,388,0,77.205,226.647,167.8605,0,0,0,1,0,0,0,77.205,60.4047,2.7636,-16.8003,20,
111,1,7,1,389,0,345.8717,259.7531,79.8875,0,0,0,2,0,0,0,259.7531,279.7767,2.2916,20.0236,20,
111,1,7,1,390,1,285.5664,17.3066,228.5932,1,2,3,1,1,0,0,285.5664,287.0179,4.6737,1.4515,40,
111,1,7,1,391,0,196.333,165.6764,255.3885,0,0,0,3,0,0,0,255.3885,240.2049,2.4995,-15.1836,20,
111,1,7,1,392,1,106.7317,169.8031,346.5066,3,2,1,3,1,0,0,346.5066,326.4699,0.8958,-20.0367,20,
111,1,7,1,393,1,136.2231,17.9134,225.2637,2,3,1,1,0,0,1,136.2231,149.5218,1.7569,13.2987,20,
111,1,7,1,394,0,48.0304,138.6822,108.5663,0,0,0,2,0,0,0,138.6822,124.5125,4.222,-14.1697,20,
111,1,7,1,395,1,135.9702,318.1324,228.1037,3,2,1,3,1,0,0,228.1037,241.8324,2.236,13.7287,20,
111,1,7,1,396,1,165.2446,15.5411,79.2915,2,3,1,2,1,0,0,15.5411,21.5089,3.097,5.9678,30,
111,1,7,1,397,1,285.1272,199.8929,135.661,2,3,1,2,1,0,0,199.8929,26.8146,2.5975,-173.0783,0,
111,1,7,1,398,1,108.6478,317.4935,257.7333,1,3,2,1,1,0,0,108.6478,106.3525,1.986,-2.2953,40,
111,1,7,1,399,1,47.793,198.7833,229.8796,1,3,2,1,1,0,0,47.793,219.1406,1.8888,171.3476,0,
111,1,7,1,400,0,16.5286,198.8272,226.2644,0,0,0,3,0,0,0,226.2644,246.8144,1.8402,20.5499,20,
111,1,7,1,401,1,257.3597,48.9807,169.3782,2,1,3,3,0,0,1,169.3782,273.3478,1.5003,103.9696,0,
111,1,7,1,402,0,226.0922,49.7603,76.8113,0,0,0,1,0,0,0,226.0922,223.6329,2.2499,-2.4592,40,
111,1,7,1,403,0,227.4851,346.4198,105.371,0,0,0,2,0,0,0,346.4198,324.3661,1.9446,-22.0537,10,
111,1,7,1,404,1,256.8705,46.0809,17.8801,1,2,3,2,0,1,0,46.0809,29.8046,2.2568,-16.2763,20,
111,1,7,1,405,1,15.124,49.5563,345.74,2,3,1,1,0,0,1,15.124,358.4235,2.9929,-16.7005,20,
111,1,7,1,406,1,259.4542,17.9429,105.8129,1,3,2,1,1,0,0,259.4542,251.085,2.6804,-8.3693,30,
111,1,7,1,407,1,16.7648,199.979,316.8248,1,2,3,1,1,0,0,16.7648,14.3219,2.6665,-2.443,40,
111,1,7,1,408,0,49.1793,317.9413,226.8173,0,0,0,1,0,0,0,49.1793,51.0627,2.9095,1.8834,40,
111,1,7,1,409,1,135.3203,49.2732,19.8723,3,2,1,3,1,0,0,19.8723,14.0649,2.722,-5.8074,30,
111,1,7,1,410,1,348.9881,196.8402,165.0757,2,1,3,2,1,0,0,196.8402,192.5828,2.8261,-4.2575,30,
111,1,7,1,411,0,169.6561,48.0783,106.2914,0,0,0,2,0,0,0,48.0783,53.6928,3.0349,5.6145,30,
111,1,7,1,412,1,259.3564,318.0681,106.3572,1,3,2,1,1,0,0,259.3564,253.2657,2.9096,-6.0908,30,
111,1,7,1,413,1,48.6716,136.6975,346.5138,2,3,1,2,1,0,0,136.6975,125.0608,3.104,-11.6367,30,
111,1,7,1,414,0,46.251,18.0135,228.1273,0,0,0,3,0,0,0,228.1273,230.355,2.1458,2.2277,40,
111,1,7,1,415,0,18.6461,228.4192,138.2071,0,0,0,3,0,0,0,138.2071,190.2702,2.3401,52.0632,0,
111,1,7,1,416,0,137.01,78.9045,259.1961,0,0,0,3,0,0,0,259.1961,270.0608,1.7985,10.8647,30,
111,1,7,1,417,1,228.0223,256.9172,107.7524,2,1,3,2,1,0,0,256.9172,72.6279,0.81942,175.7108,0,
111,1,7,1,418,1,77.5213,136.8426,18.4262,1,2,3,3,0,0,1,18.4262,37.7368,1.785,19.3106,20,
111,1,7,1,419,1,45.0179,257.1253,16.1217,2,3,1,2,1,0,0,257.1253,244.029,2.1526,-13.0963,20,
111,1,7,1,420,1,167.9834,315.0926,139.666,2,3,1,2,1,0,0,315.0926,306.2807,1.2985,-8.8119,30,
111,1,8,1,421,0,19.4819,349.1117,259.4139,0,0,0,3,0,0,0,259.4139,243.1535,1.6179,-16.2604,20,
111,1,8,1,422,1,226.2781,19.858,77.9056,1,2,3,2,0,1,0,19.858,43.4007,2.1804,23.5427,10,
111,1,8,1,423,1,45.6067,75.203,349.4397,2,1,3,2,1,0,0,75.203,69.5221,1.6249,-5.681,30,
111,1,8,1,424,0,108.7988,198.075,135.7603,0,0,0,1,0,0,0,108.7988,145.8281,1.986,37.0294,0,
111,1,8,1,425,1,347.5489,78.1367,19,2,3,1,2,1,0,0,78.1367,73.4445,1.3958,-4.6922,30,
111,1,8,1,426,1,258.037,49.9834,195.2119,1,3,2,2,0,0,1,49.9834,56.9472,2.7358,6.9638,30,
111,1,8,1,427,1,229.2602,15.4968,257.9889,3,2,1,3,1,0,0,257.9889,234.5975,1.9651,-23.3914,10,
111,1,8,1,428,1,345.1878,285.5768,259.0935,1,2,3,1,1,0,0,345.1878,306.7692,1.5,-38.4186,0,
111,1,8,1,429,1,107.8684,347.4155,47.1081,2,1,3,3,0,0,1,47.1081,38.523,2.1941,-8.5851,30,
111,1,8,1,430,1,196.8805,76.0165,165.8958,3,2,1,3,1,0,0,165.8958,145.6285,2.1596,-20.2674,20,
111,1,8,1,431,1,259.979,135.0422,228.6642,3,2,1,1,0,0,1,259.979,256.6818,1.9721,-3.2972,30,
111,1,8,1,432,1,289.2735,346.0245,19.3018,2,1,3,2,1,0,0,346.0245,315.2506,1.7568,-30.7739,0,
111,1,8,1,433,0,348.6641,77.3639,16.9629,0,0,0,2,0,0,0,77.3639,66.903,1.2013,-10.4609,30,
111,1,8,1,434,0,139.7399,49.6835,109.9839,0,0,0,3,0,0,0,109.9839,104.887,2.2989,-5.097,30,
111,1,8,1,435,0,258.7759,16.4223,166.0312,0,0,0,2,0,0,0,16.4223,34.1197,2.0138,17.6974,20,
111,1,8,1,436,1,285.3578,135.942,106.6778,2,3,1,3,0,1,0,106.6778,75.033,2.6039,-31.6448,0,
111,1,8,1,437,1,287.168,75.6769,166.078,2,3,1,2,1,0,0,75.6769,60.4365,1.5138,-15.2404,20,
111,1,8,1,438,1,348.0378,45.3974,137.0769,3,2,1,1,0,0,1,348.0378,347.9655,2.9371,-0.072236,40,
111,1,8,1,439,1,228.4184,79.442,138.5643,3,1,2,3,1,0,0,138.5643,129.7015,2.3328,-8.8628,30,
111,1,8,1,440,1,106.9983,77.2006,196.5481,3,1,2,3,1,0,0,196.5481,223.3474,2.9512,26.7993,10,
111,1,8,1,441,1,138.2049,259.8788,319.6033,3,2,1,3,1,0,0,319.6033,326.334,2.5415,6.7307,30,
111,1,8,1,442,0,16.7871,75.6814,169.0289,0,0,0,3,0,0,0,169.0289,158.9724,2.5415,-10.0565,30,
111,1,8,1,443,1,138.017,198.3382,169.3166,1,3,2,1,1,0,0,138.017,159.003,1.7916,20.9859,20,
111,1,8,1,444,1,46.4313,349.1655,288.8512,1,2,3,1,1,0,0,46.4313,59.2682,1.8194,12.8369,20,
111,1,8,1,445,1,15.4099,286.8748,255.435,3,2,1,2,0,1,0,286.8748,294.7214,1.9373,7.8467,30,
111,1,8,1,446,0,258.6654,107.634,76.3465,0,0,0,1,0,0,0,258.6654,247.1387,1.444,-11.5267,30,
111,1,8,1,447,1,108.6335,169.8065,228.7511,1,3,2,1,1,0,0,108.6335,131.896,1.9512,23.2625,10,
111,1,8,1,448,1,16.72,286.1982,165.002,1,2,3,2,0,1,0,286.1982,291.0918,1.993,4.8935,30,
111,1,8,1,449,0,168.6221,287.0458,139.9883,0,0,0,1,0,0,0,168.6221,162.1008,1.6668,-6.5213,30,
111,1,8,1,450,1,348.249,318.9504,75.3615,3,2,1,3,1,0,0,75.3615,65.4904,2.111,-9.8711,30,
111,1,8,1,451,1,47.0638,317.0801,197.3169,3,1,2,3,1,0,0,197.3169,216.6815,2.1665,19.3647,20,
111,1,8,1,452,0,255.3488,319.3022,166.0419,0,0,0,3,0,0,0,166.0419,154.697,1.118,-11.3449,30,
111,1,8,1,453,1,286.5414,166.6602,19.658,2,1,3,2,1,0,0,166.6602,146.9822,1.9374,-19.678,20,
111,1,8,1,454,0,48.7005,137.024,315.2571,0,0,0,2,0,0,0,137.024,103.3568,1.3472,-33.6672,0,
111,1,8,1,455,0,258.172,318.6573,285.7818,0,0,0,1,0,0,0,258.172,70.312,2.4651,172.14,0,
111,1,8,1,456,0,165.231,257.1094,286.7793,0,0,0,2,0,0,0,257.1094,267.6852,3.0068,10.5758,30,
111,1,8,1,457,0,227.6564,169.6851,256.6671,0,0,0,1,0,0,0,227.6564,214.9838,1.2917,-12.6725,20,
111,1,8,1,458,1,107.2598,348.8097,288.1292,1,3,2,1,1,0,0,107.2598,117.6098,1.8402,10.35,30,
111,1,8,1,459,1,15.902,46.4852,199.1465,1,2,3,1,1,0,0,15.902,18.5708,1.5624,2.6688,40,
111,1,8,1,460,0,168.8212,106.8982,197.2703,0,0,0,1,0,0,0,168.8212,158.5981,1.2847,-10.2231,30,
111,1,8,1,461,0,137.7108,199.1513,166.5872,0,0,0,3,0,0,0,166.5872,169.362,2.1456,2.7747,40,
111,1,8,1,462,1,137.9032,285.9225,347.4746,2,3,1,2,1,0,0,285.9225,320.214,1.3541,34.2915,0,
111,1,8,1,463,1,196.5762,75.7709,106.9421,3,2,1,2,0,1,0,75.7709,69.6828,1.3264,-6.0881,30,
111,1,8,1,464,1,285.3413,136.0661,78.8595,1,3,2,1,1,0,0,285.3413,281.0057,2.9234,-4.3356,30,
111,1,8,1,465,1,108.3365,79.3563,165.9066,2,1,3,1,0,1,0,108.3365,96.8207,1.5486,-11.5157,30,
111,1,8,1,466,1,168.7508,348.7918,47.9178,1,3,2,2,0,0,1,348.7918,327.0701,2.4581,-21.7217,10,
111,1,8,1,467,1,136.3524,348.8175,316.5929,3,1,2,3,1,0,0,316.5929,314.0266,1.361,-2.5663,40,
111,1,8,1,468,1,75.5238,107.2228,287.4528,3,1,2,1,0,1,0,75.5238,67.2106,1.6526,-8.3131,30,
111,1,8,1,469,1,108.5544,76.3167,166.4805,3,1,2,3,1,0,0,166.4805,152.2755,2.6457,-14.2051,20,
111,1,8,1,470,0,259.2464,105.2999,18.8336,0,0,0,3,0,0,0,18.8336,65.4181,1.875,46.5844,0,
111,1,8,1,471,1,75.1583,345.7907,108.5985,3,1,2,3,1,0,0,108.5985,107.7807,2.6248,-0.81784,40,
111,1,8,1,472,0,138.904,195.9652,285.8697,0,0,0,1,0,0,0,138.904,124.7084,2.5207,-14.1956,20,
111,1,8,1,473,0,199.5466,285.8034,138.6897,0,0,0,1,0,0,0,199.5466,203.907,2.5277,4.3604,30,
111,1,8,1,474,0,45.596,168.2843,289.7366,0,0,0,2,0,0,0,168.2843,160.5374,2.8401,-7.7468,30,
111,1,8,1,475,0,47.2486,259.3221,289.7698,0,0,0,1,0,0,0,47.2486,60.7661,1.5138,13.5175,20,
111,1,8,1,476,1,259.3878,105.4648,79.6492,3,2,1,3,1,0,0,79.6492,71.8168,1.9859,-7.8325,30,
111,1,8,1,477,0,77.187,227.5914,47.8009,0,0,0,1,0,0,0,77.187,70.7785,1.9515,-6.4085,30,
111,1,8,1,478,0,197.6277,46.1462,135.2819,0,0,0,3,0,0,0,135.2819,128.245,2.1178,-7.0369,30,
111,1,8,1,479,1,139.1133,197.1161,345.5079,1,3,2,1,1,0,0,139.1133,159.1735,1.5209,20.0603,20,
111,1,8,1,480,1,17.8186,46.5734,105.7283,1,2,3,3,0,0,1,105.7283,92.1193,2.5346,-13.609,20,
