Subject,Session,Block,Condition,Trial,whetherCued,leftStim,rightStim,midStim,remCueLoc,fogCueLoc,neutralCueLoc,probeCueLoc,probeRem,probeForget,probeNeutral,Target,Estimate,RT,Error,Points
104,1,1,2,1,0,136.1214,256.3453,18.3652,0,0,0,3,0,0,0,18.3652,72.5527,2.2566,54.1876,0,
104,1,1,2,2,1,289.4795,225.4954,105.2208,2,3,1,2,1,0,0,225.4954,229.6037,1.2221,4.1082,30,
104,1,1,2,3,1,347.5064,287.1586,109.9878,1,3,2,1,1,0,0,347.5064,298.0759,1.5068,-49.4306,0,
104,1,1,2,4,0,348.6529,108.2324,289.1658,0,0,0,2,0,0,0,108.2324,89.4842,1.5623,-18.7482,20,
104,1,1,2,5,0,107.4617,228.4737,289.8637,0,0,0,3,0,0,0,289.8637,85.9752,2.1521,156.1115,0,
104,1,1,2,6,1,138.3022,255.2378,226.7439,1,3,2,2,0,0,1,255.2378,261.3299,2.3398,6.0922,30,
104,1,1,2,7,1,197.5189,257.448,49.3852,1,3,2,1,1,0,0,197.5189,193.6524,1.479,-3.8665,30,
104,1,1,2,8,1,105.0963,165.4194,19.874,3,1,2,3,1,0,0,19.874,22.1611,1.0622,2.2871,40,
104,1,1,2,9,1,349.6502,286.9951,105.237,2,3,1,2,1,0,0,286.9951,351.773,1.4374,64.7779,0,
104,1,1,2,10,1,259.389,197.9122,285.3534,3,2,1,3,1,0,0,285.3534,261.0344,1.1388,-24.319,10,
104,1,1,2,11,1,317.5194,78.234,226.5387,2,1,3,2,1,0,0,78.234,84.5986,1.0622,6.3646,30,
104,1,1,2,12,0,226.4331,199.0041,19.4806,0,0,0,2,0,0,0,199.0041,194.2939,1.347,-4.7102,30,
104,1,1,2,13,1,199.1477,319.2454,226.8627,2,3,1,2,1,0,0,319.2454,342.452,1.2567,23.2065,10,
104,1,1,2,14,1,198.7837,137.0852,229.8589,3,2,1,1,0,0,1,198.7837,198.5077,1.4023,-0.27604,40,
104,1,1,2,15,1,317.252,136.0284,79.4983,2,3,1,2,1,0,0,136.0284,166.405,1.2981,30.3766,0,
104,1,1,2,16,1,166.9501,227.4895,288.474,3,1,2,3,1,0,0,288.474,286.6811,1.4304,-1.7929,40,
104,1,1,2,17,0,255.5852,109.0734,346.6243,0,0,0,3,0,0,0,346.6243,16.4137,1.2429,29.7894,10,
104,1,1,2,18,0,19.1594,45.6717,75.3023,0,0,0,2,0,0,0,45.6717,50.384,1.1592,4.7123,30,
104,1,1,2,19,1,139.9843,17.7677,197.5773,1,2,3,1,1,0,0,139.9843,126.9473,1.2082,-13.037,20,
104,1,1,2,20,1,169.6556,105.9539,16.2929,3,2,1,1,0,0,1,169.6556,148.2308,1.1735,-21.4248,10,
104,1,1,2,21,1,198.6008,256.7345,227.585,1,3,2,1,1,0,0,198.6008,194.6212,1.2429,-3.9796,30,
104,1,1,2,22,1,47.1514,228.4688,289.7261,3,2,1,3,1,0,0,289.7261,287.3965,1.2013,-2.3296,40,
104,1,1,2,23,1,288.3452,197.5011,346.09,3,2,1,3,1,0,0,346.09,13.1413,1.2223,27.0513,10,
104,1,1,2,24,1,229.3193,135.4885,169.5403,2,3,1,2,1,0,0,135.4885,147.2262,1.4095,11.7377,30,
104,1,1,2,25,0,137.5392,347.928,18.8144,0,0,0,3,0,0,0,18.8144,11.1821,1.361,-7.6323,30,
104,1,1,2,26,1,17.7694,108.4003,196.8359,3,1,2,3,1,0,0,196.8359,197.0432,1.4304,0.2073,40,
104,1,1,2,27,0,135.7013,16.3007,195.4341,0,0,0,1,0,0,0,135.7013,88.844,1.4162,-46.8573,0,
104,1,1,2,28,0,346.1034,285.0065,135.9459,0,0,0,1,0,0,0,346.1034,92.3968,1.4788,106.2934,0,
104,1,1,2,29,1,105.3418,17.1816,75.8693,3,2,1,3,1,0,0,75.8693,79.8598,1.3332,3.9905,30,
104,1,1,2,30,1,166.1401,16.8543,319.4546,1,3,2,1,1,0,0,166.1401,156.5634,1.1178,-9.5768,30,
104,1,1,2,31,1,347.6621,78.5825,225.8965,3,2,1,3,1,0,0,225.8965,237.5112,1.3819,11.6147,30,
104,1,1,2,32,1,169.6783,319.0936,48.6413,2,1,3,1,0,1,0,169.6783,NaN,100000,999,0,
104,1,1,2,33,1,108.812,17.8803,78.7383,3,2,1,3,1,0,0,78.7383,58.7051,0.95131,-20.0332,20,
104,1,1,2,34,0,347.6614,136.397,49.7312,0,0,0,3,0,0,0,49.7312,72.387,1.0208,22.6558,10,
104,1,1,2,35,0,78.6346,196.8692,47.9079,0,0,0,1,0,0,0,78.6346,82.2693,1.0763,3.6347,30,
104,1,1,2,36,1,45.7597,16.9855,196.8736,3,1,2,2,0,0,1,16.9855,38.6165,1.0832,21.6309,10,
104,1,1,2,37,1,138.2116,316.1063,79.1853,3,1,2,3,1,0,0,79.1853,52.2486,1.4929,-26.9366,10,
104,1,1,2,38,1,319.2929,289.5553,168.4982,3,2,1,3,1,0,0,168.4982,245.4107,2.9164,76.9125,0,
104,1,1,2,39,1,287.6468,199.1499,49.2938,1,2,3,3,0,0,1,49.2938,41.4231,1.3402,-7.8707,30,
104,1,1,2,40,1,169.2518,139.5582,198.1964,1,2,3,2,0,1,0,139.5582,NaN,100000,999,0,
104,1,1,2,41,0,169.1329,48.3844,286.038,0,0,0,3,0,0,0,286.038,295.0725,1.5276,9.0345,30,
104,1,1,2,42,0,287.2569,316.9132,48.9482,0,0,0,2,0,0,0,316.9132,312.0153,1.2916,-4.8979,30,
104,1,1,2,43,0,228.7938,349.9761,315.9329,0,0,0,3,0,0,0,315.9329,341.7597,1.4234,25.8269,10,
104,1,1,2,44,1,285.9688,47.1618,258.7458,2,3,1,2,1,0,0,47.1618,60.457,0.93737,13.2952,20,
104,1,1,2,45,0,19.6749,137.3974,346.159,0,0,0,1,0,0,0,19.6749,85.2347,1.5207,65.5598,0,
104,1,1,2,46,1,287.6548,259.506,317.7028,2,3,1,2,1,0,0,259.506,280.5103,1.514,21.0042,10,
104,1,1,2,47,1,105.9911,165.9754,316.6342,1,2,3,1,1,0,0,105.9911,87.9703,1.2012,-18.0208,20,
104,1,1,2,48,0,109.0699,259.4922,77.1462,0,0,0,1,0,0,0,109.0699,83.9067,1.4995,-25.1632,10,
104,1,1,2,49,0,315.4649,347.3174,285.0467,0,0,0,1,0,0,0,315.4649,288.0456,2.1595,-27.4193,10,
104,1,1,2,50,1,77.1828,225.2461,105.2482,2,3,1,2,1,0,0,225.2461,214.4023,1.2846,-10.8438,30,
104,1,1,2,51,0,17.3062,228.1966,259.5867,0,0,0,2,0,0,0,228.1966,250.685,1.486,22.4884,10,
104,1,1,2,52,0,19.9049,195.6352,286.1612,0,0,0,2,0,0,0,195.6352,200.6382,1.9651,5.003,30,
104,1,1,2,53,0,19.2845,75.217,318.4581,0,0,0,1,0,0,0,19.2845,89.3662,1.9233,70.0817,0,
104,1,1,2,54,0,79.095,348.1246,228.6928,0,0,0,1,0,0,0,79.095,77.8383,1.715,-1.2567,40,
104,1,1,2,55,0,49.4771,227.9126,257.9137,0,0,0,3,0,0,0,257.9137,237.691,1.1457,-20.2227,20,
104,1,1,2,56,0,47.0319,136.931,228.049,0,0,0,2,0,0,0,136.931,160.2837,1.889,23.3528,10,
104,1,1,2,57,0,77.6151,16.6265,49.1592,0,0,0,3,0,0,0,49.1592,61.265,1.7706,12.1058,20,
104,1,1,2,58,0,137.6428,345.2572,78.7844,0,0,0,2,0,0,0,345.2572,342.4793,1.9233,-2.7779,40,
104,1,1,2,59,1,168.7425,317.7165,226.6907,3,2,1,2,0,1,0,317.7165,NaN,100000,999,0,
104,1,1,2,60,1,315.1258,197.0721,138.657,1,2,3,1,1,0,0,315.1258,330.3073,2.5621,15.1815,20,
104,1,2,2,61,1,315.8145,169.192,195.8378,2,3,1,2,1,0,0,169.192,173.4326,1.3264,4.2405,30,
104,1,2,2,62,0,109.7017,135.0292,228.0515,0,0,0,3,0,0,0,228.0515,222.7306,1.1736,-5.321,30,
104,1,2,2,63,1,256.4523,47.0128,289.3103,1,2,3,1,1,0,0,256.4523,274.2806,1.4234,17.8283,20,
104,1,2,2,64,0,319.2054,76.7725,167.1503,0,0,0,3,0,0,0,167.1503,183.2501,2.1321,16.0998,20,
104,1,2,2,65,1,289.8173,135.4295,167.5025,2,3,1,2,1,0,0,135.4295,152.4057,1.3957,16.9762,20,
104,1,2,2,66,1,46.5193,197.4165,346.6891,2,3,1,2,1,0,0,197.4165,182.5946,1.312,-14.8219,20,
104,1,2,2,67,1,79.9262,107.7974,169.668,1,2,3,1,1,0,0,79.9262,88.0508,2.0761,8.1246,30,
104,1,2,2,68,1,135.5422,165.1806,228.0905,1,2,3,1,1,0,0,135.5422,128.3973,1.5068,-7.1449,30,
104,1,2,2,69,0,259.4502,346.651,166.1485,0,0,0,1,0,0,0,259.4502,264.4859,2.1035,5.0357,30,
104,1,2,2,70,0,135.5697,19.8928,79.243,0,0,0,2,0,0,0,19.8928,356.7516,2.0623,-23.1412,10,
104,1,2,2,71,1,285.5402,17.2994,137.2544,1,3,2,1,1,0,0,285.5402,281.1984,1.2709,-4.3419,30,
104,1,2,2,72,0,138.7045,347.534,165.9996,0,0,0,2,0,0,0,347.534,342.3659,1.6873,-5.1681,30,
104,1,2,2,73,1,169.3879,345.0718,46.4715,1,2,3,2,0,1,0,345.0718,NaN,100000,999,0,
104,1,2,2,74,1,227.7164,78.5126,19.7822,1,3,2,2,0,0,1,78.5126,58.9941,0.93743,-19.5185,20,
104,1,2,2,75,1,78.8751,319.5709,48.9128,1,3,2,1,1,0,0,78.8751,83.3989,2.1108,4.5238,30,
104,1,2,2,76,0,48.4957,168.9813,137.2079,0,0,0,1,0,0,0,48.4957,76.6348,1.4578,28.1392,10,
104,1,2,2,77,1,315.7287,287.9252,345.3668,3,1,2,2,0,0,1,287.9252,307.4836,1.9651,19.5584,20,
104,1,2,2,78,0,286.8252,226.5457,315.6046,0,0,0,1,0,0,0,286.8252,272.6217,1.597,-14.2035,20,
104,1,2,2,79,0,256.6999,319.2336,46.2303,0,0,0,3,0,0,0,46.2303,34.1421,1.6455,-12.0883,20,
104,1,2,2,80,1,135.68,78.9445,105.462,1,3,2,1,1,0,0,135.68,102.2796,1.3471,-33.4005,0,
104,1,2,2,81,1,75.0988,319.8215,349.8519,1,2,3,1,1,0,0,75.0988,85.9848,1.0068,10.886,30,
104,1,2,2,82,1,19.6916,226.2771,107.6658,3,2,1,3,1,0,0,107.6658,104.2895,0.72213,-3.3763,30,
104,1,2,2,83,0,138.9798,226.1669,78.0042,0,0,0,3,0,0,0,78.0042,71.8503,0.92351,-6.1539,30,
104,1,2,2,84,1,346.4868,16.9821,317.1038,2,1,3,3,0,0,1,317.1038,18.5719,1.6179,61.4681,0,
104,1,2,2,85,1,317.7541,79.3545,195.2113,1,3,2,1,1,0,0,317.7541,285.1854,1.3539,-32.5687,0,
104,1,2,2,86,1,47.5997,169.9459,257.4496,1,2,3,1,1,0,0,47.5997,68.4964,1.5067,20.8968,20,
104,1,2,2,87,0,79.0846,195.9474,105.6185,0,0,0,2,0,0,0,195.9474,187.3668,2.3122,-8.5806,30,
104,1,2,2,88,1,76.6599,319.1987,286.8586,3,1,2,3,1,0,0,286.8586,268.0132,1.347,-18.8454,20,
104,1,2,2,89,1,135.784,76.6302,46.5703,1,2,3,1,1,0,0,135.784,111.0926,1.8119,-24.6914,10,
104,1,2,2,90,0,286.0726,228.3995,167.7865,0,0,0,2,0,0,0,228.3995,236.6876,1.6388,8.288,30,
104,1,2,2,91,1,287.0116,195.9092,139.2813,3,2,1,1,0,0,1,287.0116,270.85,1.5554,-16.1617,20,
104,1,2,2,92,1,225.9992,318.0367,107.7152,3,2,1,3,1,0,0,107.7152,124.1681,1.2429,16.4529,20,
104,1,2,2,93,0,48.791,169.4352,15.344,0,0,0,1,0,0,0,48.791,71.0596,1.2638,22.2686,10,
104,1,2,2,94,0,16.9081,317.8384,169.4393,0,0,0,3,0,0,0,169.4393,170.8599,1.4373,1.4206,40,
104,1,2,2,95,0,139.6308,166.4925,256.6904,0,0,0,1,0,0,0,139.6308,140.3999,1.2011,0.7691,40,
104,1,2,2,96,0,346.3991,77.235,47.9379,0,0,0,3,0,0,0,47.9379,249.3286,1.1944,-158.6092,0,
104,1,2,2,97,0,349.442,316.1658,289.308,0,0,0,2,0,0,0,316.1658,319.1531,1.1943,2.9873,40,
104,1,2,2,98,1,287.6372,108.625,348.0371,2,1,3,1,0,1,0,287.6372,NaN,100000,999,0,
104,1,2,2,99,1,349.0746,135.7025,259.3993,2,3,1,3,0,1,0,259.3993,NaN,100000,999,0,
104,1,2,2,100,0,15.4219,229.8604,285.1573,0,0,0,1,0,0,0,15.4219,28.9158,1.5556,13.494,20,
104,1,2,2,101,1,318.2673,77.4483,349.8643,3,1,2,3,1,0,0,349.8643,3.2541,1.3262,13.3898,20,
104,1,2,2,102,1,287.6205,225.601,105.889,3,2,1,2,0,1,0,225.601,NaN,100000,999,0,
104,1,2,2,103,1,77.9122,257.105,345.4603,1,2,3,1,1,0,0,77.9122,75.5323,1.7567,-2.3799,40,
104,1,2,2,104,0,15.8762,165.966,258.0821,0,0,0,2,0,0,0,165.966,170.4116,1.6109,4.4456,30,
104,1,2,2,105,0,288.861,317.3768,18.4045,0,0,0,2,0,0,0,317.3768,327.3834,1.347,10.0066,30,
104,1,2,2,106,1,139.1315,79.956,197.6197,1,3,2,1,1,0,0,139.1315,122.5932,1.4651,-16.5383,20,
104,1,2,2,107,1,317.3578,347.715,225.2985,1,2,3,2,0,1,0,347.715,NaN,100000,999,0,
104,1,2,2,108,1,79.1667,256.0186,227.7221,3,2,1,1,0,0,1,79.1667,80.7478,1.3263,1.581,40,
104,1,2,2,109,1,165.6614,49.3524,348.0148,1,3,2,1,1,0,0,165.6614,177.9864,1.7774,12.325,20,
104,1,2,2,110,0,76.8968,319.3234,17.0998,0,0,0,2,0,0,0,319.3234,324.4123,1.2846,5.089,30,
104,1,2,2,111,1,349.1405,287.5372,16.8308,3,1,2,1,0,1,0,349.1405,NaN,100000,999,0,
104,1,2,2,112,1,167.8456,109.3752,136.7429,3,2,1,1,0,0,1,167.8456,181.828,1.6387,13.9825,20,
104,1,2,2,113,1,17.3376,75.7067,45.3407,2,1,3,2,1,0,0,75.7067,87.1979,1.2082,11.4912,30,
104,1,2,2,114,0,346.2021,48.4245,319.1963,0,0,0,2,0,0,0,48.4245,57.1065,1.4442,8.682,30,
104,1,2,2,115,0,316.9479,48.8765,285.8968,0,0,0,1,0,0,0,316.9479,301.1577,1.5208,-15.7903,20,
104,1,2,2,116,0,169.6136,317.8213,17.1573,0,0,0,2,0,0,0,317.8213,323.676,1.4372,5.8547,30,
104,1,2,2,117,1,79.9629,257.2792,17.1302,3,1,2,3,1,0,0,17.1302,353.3311,2.1317,-23.7991,10,
104,1,2,2,118,0,348.4165,318.0428,46.0983,0,0,0,1,0,0,0,348.4165,2.3694,1.7984,13.9529,20,
104,1,2,2,119,0,169.7606,319.8793,345.1546,0,0,0,1,0,0,0,169.7606,169.6206,1.8053,-0.14,40,
104,1,2,2,120,0,196.2163,77.8571,319.9086,0,0,0,2,0,0,0,77.8571,74.1412,1.8401,-3.7159,30,
104,1,3,1,121,0,315.19,49.7712,258.7119,0,0,0,2,0,0,0,49.7712,51.4676,1.1939,1.6963,40,
104,1,3,1,122,0,256.3059,75.474,107.2548,0,0,0,1,0,0,0,256.3059,272.2288,2.465,15.923,20,
104,1,3,1,123,1,46.3872,285.0305,346.8736,2,1,3,2,1,0,0,285.0305,295.7386,1.236,10.7081,30,
104,1,3,1,124,0,105.9184,319.3083,75.1632,0,0,0,1,0,0,0,105.9184,91.8645,1.3957,-14.0539,20,
104,1,3,1,125,1,106.5588,195.2766,18.769,3,2,1,3,1,0,0,18.769,12.2713,1.3469,-6.4976,30,
104,1,3,1,126,1,139.8817,17.9662,316.522,2,3,1,1,0,0,1,139.8817,106.7132,1.7498,-33.1684,0,
104,1,3,1,127,1,108.4447,349.7301,229.3677,3,1,2,3,1,0,0,229.3677,233.3979,1.285,4.0303,30,
104,1,3,1,128,1,319.9646,15.8124,75.5678,1,2,3,1,1,0,0,319.9646,301.5967,1.9716,-18.368,20,
104,1,3,1,129,0,317.5047,196.66,135.8694,0,0,0,1,0,0,0,317.5047,94.4931,2.4442,136.9884,0,
104,1,3,1,130,0,287.6892,169.3546,108.6142,0,0,0,1,0,0,0,287.6892,290.0697,1.3471,2.3805,40,
104,1,3,1,131,1,347.3686,289.756,46.2448,2,1,3,2,1,0,0,289.756,294.0151,1.7637,4.2591,30,
104,1,3,1,132,1,167.2609,19.246,46.9522,2,1,3,2,1,0,0,19.246,6.7807,1.4304,-12.4653,20,
104,1,3,1,133,1,197.6056,138.8715,165.6013,1,2,3,1,1,0,0,197.6056,205.9899,0.91675,8.3843,30,
104,1,3,1,134,1,167.5071,256.385,287.6698,1,2,3,2,0,1,0,256.385,280.6881,1.2846,24.3031,10,
104,1,3,1,135,1,75.2679,196.8753,288.875,1,2,3,3,0,0,1,288.875,18.5719,1.3194,89.6969,0,
104,1,3,1,136,0,197.5604,348.6066,259.6442,0,0,0,1,0,0,0,197.5604,202.5306,1.2568,4.9702,30,
104,1,3,1,137,0,168.4379,109.9343,348.8497,0,0,0,3,0,0,0,348.8497,26.8542,1.2496,38.0045,0,
104,1,3,1,138,1,198.6208,258.0684,348.9148,2,3,1,2,1,0,0,258.0684,265.247,1.5762,7.1786,30,
104,1,3,1,139,1,345.3642,288.7561,229.1559,1,2,3,1,1,0,0,345.3642,353.8223,1.8539,8.4581,30,
104,1,3,1,140,1,229.1626,289.9769,348.2488,1,2,3,2,0,1,0,289.9769,287.1801,1.3679,-2.7968,40,
104,1,3,1,141,0,196.0322,256.693,137.8706,0,0,0,1,0,0,0,196.0322,207.3903,1.604,11.3582,30,
104,1,3,1,142,0,137.2949,199.3049,318.3042,0,0,0,2,0,0,0,199.3049,175.2029,1.7012,-24.102,10,
104,1,3,1,143,0,319.5075,166.5917,77.9854,0,0,0,1,0,0,0,319.5075,335.3845,2.2289,15.877,20,
104,1,3,1,144,1,198.7463,49.2093,255.8344,3,2,1,1,0,0,1,198.7463,215.4571,1.3467,16.7109,20,
104,1,3,1,145,1,47.6562,169.7795,195.3334,1,2,3,1,1,0,0,47.6562,65.8228,1.3193,18.1666,20,
104,1,3,1,146,0,285.7627,255.7778,345.4478,0,0,0,2,0,0,0,255.7778,275.2188,1.2846,19.4411,20,
104,1,3,1,147,1,346.1715,287.3235,18.0969,3,2,1,3,1,0,0,18.0969,25.507,1.9164,7.4101,30,
104,1,3,1,148,1,286.6012,47.4647,76.1083,1,2,3,2,0,1,0,47.4647,58.5579,2.2358,11.0932,30,
104,1,3,1,149,0,169.9519,135.1685,257.1213,0,0,0,1,0,0,0,169.9519,170.3265,1.0345,0.37456,40,
104,1,3,1,150,1,135.5186,76.8876,286.3143,2,3,1,2,1,0,0,76.8876,82.2612,0.86798,5.3737,30,
104,1,3,1,151,1,136.9241,15.8132,228.9838,2,3,1,1,0,0,1,136.9241,165.6717,1.4095,28.7476,10,
104,1,3,1,152,1,256.3422,16.2905,47.405,1,3,2,1,1,0,0,256.3422,251.6304,1.8399,-4.7118,30,
104,1,3,1,153,1,46.019,79.9667,135.4681,3,1,2,3,1,0,0,135.4681,140.6499,1.3263,5.1817,30,
104,1,3,1,154,1,139.2935,49.6024,78.7542,2,3,1,2,1,0,0,49.6024,21.1687,1.8536,-28.4338,10,
104,1,3,1,155,0,287.1087,317.0566,79.7957,0,0,0,2,0,0,0,317.0566,325.0085,1.6318,7.9519,30,
104,1,3,1,156,0,108.3266,79.8213,348.3558,0,0,0,3,0,0,0,348.3558,107.9369,1.4092,119.5812,0,
104,1,3,1,157,1,75.3655,287.9028,346.4351,2,1,3,2,1,0,0,287.9028,290.4731,1.722,2.5703,40,
104,1,3,1,158,0,198.7184,106.9255,16.2575,0,0,0,3,0,0,0,16.2575,19.6418,1.4649,3.3843,30,
104,1,3,1,159,1,19.4394,316.2826,169.834,3,1,2,2,0,0,1,316.2826,317.0911,1.6664,0.80847,40,
104,1,3,1,160,1,198.7854,49.4316,347.3611,1,3,2,1,1,0,0,198.7854,209.1802,1.4929,10.3948,30,
104,1,3,1,161,1,256.8834,287.5216,198.8175,3,2,1,3,1,0,0,198.8175,210.4279,2.34,11.6104,30,
104,1,3,1,162,1,15.4179,197.5633,289.1643,2,1,3,2,1,0,0,197.5633,196.2399,2.0414,-1.3234,40,
104,1,3,1,163,0,225.9814,285.6068,317.7185,0,0,0,3,0,0,0,317.7185,343.7713,1.6943,26.0528,10,
104,1,3,1,164,1,226.822,15.8574,348.9768,2,1,3,2,1,0,0,15.8574,3.4746,1.3401,-12.3828,20,
104,1,3,1,165,0,108.4765,49.8046,227.7316,0,0,0,2,0,0,0,49.8046,58.9043,1.7636,9.0997,30,
104,1,3,1,166,1,139.2915,349.5471,169.8083,2,1,3,2,1,0,0,349.5471,357.7251,1.4583,8.1781,30,
104,1,3,1,167,0,317.665,166.6339,78.011,0,0,0,3,0,0,0,78.011,91.8519,1.7633,13.841,20,
104,1,3,1,168,1,45.8568,286.6499,19.8324,3,1,2,1,0,1,0,45.8568,63.0703,2.3331,17.2135,20,
104,1,3,1,169,1,106.7704,226.3312,346.4575,1,2,3,1,1,0,0,106.7704,71.5628,1.4933,-35.2076,0,
104,1,3,1,170,0,49.4181,287.1224,18.0363,0,0,0,1,0,0,0,49.4181,79.4872,1.5623,30.0691,0,
104,1,3,1,171,1,17.7364,197.7674,108.1529,2,3,1,2,1,0,0,197.7674,207.0173,1.3818,9.2499,30,
104,1,3,1,172,1,345.4081,166.3724,229.3376,1,3,2,1,1,0,0,345.4081,169.9711,1.354,-175.437,0,
104,1,3,1,173,0,198.8857,346.9197,288.5578,0,0,0,2,0,0,0,346.9197,335.5989,1.7359,-11.3208,30,
104,1,3,1,174,1,285.827,225.908,348.4572,3,2,1,3,1,0,0,348.4572,6.6803,2.7913,18.2231,20,
104,1,3,1,175,1,165.0106,319.7555,18.8315,1,3,2,1,1,0,0,165.0106,168.7159,1.3612,3.7053,30,
104,1,3,1,176,1,45.903,107.8665,75.8178,2,1,3,3,0,0,1,75.8178,47.8947,2.5271,-27.9231,10,
104,1,3,1,177,1,46.1465,285.9111,225.8318,2,3,1,2,1,0,0,285.9111,316.3719,1.111,30.4607,0,
104,1,3,1,178,0,108.3036,169.7062,19.8785,0,0,0,2,0,0,0,169.7062,188.8979,1.486,19.1918,20,
104,1,3,1,179,0,259.2268,109.3944,138.7309,0,0,0,2,0,0,0,109.3944,109.0628,1.1735,-0.33156,40,
104,1,3,1,180,1,17.2394,78.5482,169.7217,2,1,3,3,0,0,1,169.7217,179.0826,1.8817,9.361,30,
104,1,4,1,181,0,228.2734,195.1307,18.9289,0,0,0,3,0,0,0,18.9289,18.7442,1.111,-0.1847,40,
104,1,4,1,182,0,109.9695,258.0224,229.7245,0,0,0,2,0,0,0,258.0224,280.0977,1.1595,22.0753,10,
104,1,4,1,183,1,285.552,166.0832,199.0551,1,3,2,3,0,1,0,199.0551,187.6207,1.2568,-11.4344,30,
104,1,4,1,184,1,108.221,255.3397,226.0396,1,3,2,2,0,0,1,255.3397,272.2987,0.96519,16.9589,20,
104,1,4,1,185,1,319.6343,15.0415,79.1231,3,2,1,3,1,0,0,79.1231,75.7856,1.3471,-3.3375,30,
104,1,4,1,186,0,289.6135,166.6016,349.2877,0,0,0,1,0,0,0,289.6135,296.439,1.5068,6.8255,30,
104,1,4,1,187,0,135.0642,315.9331,77.4262,0,0,0,2,0,0,0,315.9331,323.1343,1.7848,7.2012,30,
104,1,4,1,188,1,137.8393,227.1325,45.3812,2,1,3,2,1,0,0,227.1325,246.2307,2.4168,19.0982,20,
104,1,4,1,189,0,169.7982,15.4454,288.9887,0,0,0,1,0,0,0,169.7982,173.2813,1.6321,3.483,30,
104,1,4,1,190,0,137.5494,76.9126,259.5274,0,0,0,3,0,0,0,259.5274,246.6404,1.2429,-12.8871,20,
104,1,4,1,191,0,345.9222,75.2283,289.4252,0,0,0,3,0,0,0,289.4252,265.1467,0.89572,-24.2786,10,
104,1,4,1,192,1,48.1135,105.3177,286.8675,2,3,1,2,1,0,0,105.3177,107.3239,1.104,2.0062,40,
104,1,4,1,193,1,76.7084,347.7434,17.3027,1,2,3,1,1,0,0,76.7084,75.87,1.3054,-0.83838,40,
104,1,4,1,194,1,257.1951,105.7453,195.1414,2,1,3,2,1,0,0,105.7453,79.5197,2.7222,-26.2255,10,
104,1,4,1,195,0,317.404,105.3326,79.4889,0,0,0,2,0,0,0,105.3326,97.4925,1.6665,-7.8401,30,
104,1,4,1,196,0,76.7007,169.5946,107.2813,0,0,0,3,0,0,0,107.2813,271.4968,1.007,164.2155,0,
104,1,4,1,197,0,347.9954,168.0078,108.2471,0,0,0,3,0,0,0,108.2471,108.3238,1.444,0.076717,40,
104,1,4,1,198,0,136.8788,169.3173,286.4599,0,0,0,1,0,0,0,136.8788,120.0942,2.2914,-16.7845,20,
104,1,4,1,199,1,196.4215,17.1766,229.5188,1,3,2,1,1,0,0,196.4215,201.4286,1.3544,5.0071,30,
104,1,4,1,200,1,287.6707,136.834,196.8197,2,1,3,1,0,1,0,287.6707,293.9648,1.8262,6.2941,30,
104,1,4,1,201,1,229.9196,49.8989,16.2508,2,3,1,2,1,0,0,49.8989,41.6993,0.97904,-8.1997,30,
104,1,4,1,202,0,195.0178,169.0762,228.1921,0,0,0,2,0,0,0,169.0762,175.9343,1.6735,6.8581,30,
104,1,4,1,203,0,257.3316,289.7577,49.825,0,0,0,2,0,0,0,289.7577,291.0126,1.2638,1.2549,40,
104,1,4,1,204,0,259.0554,288.5523,139.8512,0,0,0,3,0,0,0,139.8512,281.7295,1.1596,141.8783,0,
104,1,4,1,205,1,286.2257,165.3206,76.3157,1,2,3,2,0,1,0,165.3206,178.4077,2.1734,13.087,20,
104,1,4,1,206,1,315.0382,228.0546,17.0404,3,2,1,1,0,0,1,315.0382,274.6854,1.3679,-40.3528,0,
104,1,4,1,207,1,108.5521,168.4433,16.6047,1,2,3,1,1,0,0,108.5521,228.0848,1.7012,119.5327,0,
104,1,4,1,208,1,75.8955,138.1723,319.8148,3,2,1,1,0,0,1,75.8955,83.1752,0.92354,7.2796,30,
104,1,4,1,209,1,169.5658,108.4126,319.7337,1,2,3,1,1,0,0,169.5658,166.7709,0.90265,-2.7949,40,
104,1,4,1,210,0,315.4142,19.752,75.0819,0,0,0,3,0,0,0,75.0819,90.8803,1.4859,15.7984,20,
104,1,4,1,211,1,317.3943,106.5406,48.7222,2,3,1,3,0,1,0,48.7222,90.1964,1.2082,41.4742,0,
104,1,4,1,212,1,286.3409,257.7512,45.9026,3,2,1,1,0,0,1,286.3409,268.2504,1.2148,-18.0906,20,
104,1,4,1,213,1,77.0324,49.759,139.5599,1,3,2,1,1,0,0,77.0324,74.8315,1.236,-2.2009,40,
104,1,4,1,214,0,318.0144,166.8875,138.3247,0,0,0,1,0,0,0,318.0144,314.7934,1.7776,-3.221,30,
104,1,4,1,215,1,198.4041,109.616,45.7642,2,3,1,3,0,1,0,45.7642,63.8061,1.4998,18.0419,20,
104,1,4,1,216,1,45.5504,196.3961,258.8382,1,2,3,1,1,0,0,45.5504,47.1562,2.1734,1.6058,40,
104,1,4,1,217,1,226.2324,48.3037,346.647,2,3,1,2,1,0,0,48.3037,51.5081,2.2566,3.2044,30,
104,1,4,1,218,0,49.0048,137.7749,107.0944,0,0,0,2,0,0,0,137.7749,144.3857,2.1178,6.6108,30,
104,1,4,1,219,0,167.4934,18.693,255.0638,0,0,0,1,0,0,0,167.4934,194.8173,1.68,27.324,10,
104,1,4,1,220,0,288.6709,195.521,228.9629,0,0,0,2,0,0,0,195.521,196.5017,1.9859,0.98063,40,
104,1,4,1,221,0,165.2439,196.5692,108.2082,0,0,0,2,0,0,0,196.5692,197.3399,1.5971,0.77071,40,
104,1,4,1,222,0,48.3979,197.8389,288.2589,0,0,0,3,0,0,0,288.2589,102.1204,1.3679,173.8615,0,
104,1,4,1,223,1,109.8933,45.5568,136.9804,1,3,2,1,1,0,0,109.8933,95.5978,1.3541,-14.2955,20,
104,1,4,1,224,1,78.9946,289.6512,345.0236,1,3,2,1,1,0,0,78.9946,87.0627,1.2359,8.0681,30,
104,1,4,1,225,1,165.1751,197.0274,76.2483,3,1,2,3,1,0,0,76.2483,82.2628,1.6179,6.0144,30,
104,1,4,1,226,0,138.6715,347.4974,169.7165,0,0,0,3,0,0,0,169.7165,184.0297,1.7425,14.3132,20,
104,1,4,1,227,1,167.6721,77.1758,345.7885,2,3,1,2,1,0,0,77.1758,67.9694,0.98614,-9.2064,30,
104,1,4,1,228,0,79.4084,198.6705,227.0322,0,0,0,2,0,0,0,198.6705,191.5304,2.5966,-7.1401,30,
104,1,4,1,229,1,256.2999,78.9343,137.5579,2,3,1,1,0,0,1,256.2999,266.4693,1.2985,10.1694,30,
104,1,4,1,230,1,258.2465,78.8143,167.8784,1,2,3,1,1,0,0,258.2465,264.3447,2.0549,6.0982,30,
104,1,4,1,231,0,315.1631,197.1487,45.1863,0,0,0,3,0,0,0,45.1863,65.088,1.2707,19.9017,20,
104,1,4,1,232,0,166.0708,105.0193,259.4029,0,0,0,2,0,0,0,105.0193,87.3429,0.97251,-17.6764,20,
104,1,4,1,233,0,285.4293,17.6559,49.4428,0,0,0,1,0,0,0,285.4293,283.4909,1.923,-1.9384,40,
104,1,4,1,234,1,137.0614,166.811,48.907,3,2,1,3,1,0,0,48.907,47.4174,2.0623,-1.4896,40,
104,1,4,1,235,0,258.397,19.884,195.6273,0,0,0,3,0,0,0,195.6273,209.7768,1.8817,14.1495,20,
104,1,4,1,236,0,167.6627,229.6285,109.4954,0,0,0,3,0,0,0,109.4954,131.9721,2.9856,22.4767,10,
104,1,4,1,237,1,289.3028,79.6955,258.401,1,3,2,3,0,1,0,258.401,267.532,1.2017,9.1311,30,
104,1,4,1,238,1,167.6572,228.169,345.0705,2,1,3,2,1,0,0,228.169,56.1544,2.5556,-172.0146,0,
104,1,4,1,239,1,78.7617,259.4745,169.2092,1,2,3,1,1,0,0,78.7617,78.3826,1.194,-0.37907,40,
104,1,4,1,240,1,138.6643,105.5838,18.7302,2,1,3,1,0,1,0,138.6643,104.9993,1.2777,-33.6649,0,
104,1,5,1,241,1,167.0559,316.1824,255.9753,2,1,3,2,1,0,0,316.1824,348.4236,1.1665,32.2412,0,
104,1,5,1,242,1,225.5146,49.9844,196.7948,1,2,3,1,1,0,0,225.5146,227.8271,1.0898,2.3125,40,
104,1,5,1,243,1,77.9323,198.8902,258.6385,2,1,3,2,1,0,0,198.8902,191.3517,1.6248,-7.5386,30,
104,1,5,1,244,1,228.7567,317.6118,347.4522,1,2,3,2,0,1,0,317.6118,326.4697,1.5831,8.858,30,
104,1,5,1,245,1,16.2011,225.3515,286.5002,3,1,2,3,1,0,0,286.5002,297.1093,0.64593,10.6091,30,
104,1,5,1,246,0,166.4226,49.1528,229.0918,0,0,0,1,0,0,0,166.4226,164.6764,1.2011,-1.7462,40,
104,1,5,1,247,1,48.2004,108.9378,136.35,3,2,1,3,1,0,0,136.35,137.3433,1.1735,0.99335,40,
104,1,5,1,248,1,135.4472,258.6564,229.5193,1,2,3,3,0,0,1,229.5193,214.7129,1.2708,-14.8064,20,
104,1,5,1,249,1,139.9175,46.2417,348.0318,3,1,2,2,0,0,1,46.2417,52.136,0.89529,5.8943,30,
104,1,5,1,250,1,287.9163,196.3027,345.4241,2,1,3,1,0,1,0,287.9163,170.2722,1.7708,-117.6441,0,
104,1,5,1,251,0,199.6498,106.4098,345.8444,0,0,0,1,0,0,0,199.6498,189.2751,1.2429,-10.3747,30,
104,1,5,1,252,0,169.1344,316.5048,346.9194,0,0,0,3,0,0,0,346.9194,348.308,1.1113,1.3886,40,
104,1,5,1,253,0,195.6162,138.6794,225.7831,0,0,0,2,0,0,0,138.6794,166.3444,1.2221,27.6651,10,
104,1,5,1,254,1,105.6737,316.6189,199.7527,3,2,1,1,0,0,1,105.6737,131.5451,0.95827,25.8714,10,
104,1,5,1,255,0,319.0859,286.8877,49.863,0,0,0,1,0,0,0,319.0859,313.7701,1.3051,-5.3157,30,
104,1,5,1,256,1,169.9745,197.4529,47.5173,3,2,1,1,0,0,1,169.9745,155.1166,2.1733,-14.858,20,
104,1,5,1,257,1,108.6293,256.6972,346.3634,3,1,2,3,1,0,0,346.3634,358.2294,1.4999,11.866,30,
104,1,5,1,258,1,315.1454,285.681,18.4728,1,3,2,2,0,0,1,285.681,305.4154,1.2499,19.7344,20,
104,1,5,1,259,0,345.3735,195.9123,165.1584,0,0,0,2,0,0,0,195.9123,201.471,1.486,5.5588,30,
104,1,5,1,260,1,48.6624,345.8147,229.6054,1,3,2,3,0,1,0,229.6054,183.3272,1.9788,-46.2782,0,
104,1,5,1,261,1,75.0066,49.9063,17.851,1,3,2,1,1,0,0,75.0066,92.5747,1.4512,17.5681,20,
104,1,5,1,262,1,108.7804,256.4412,78.0309,1,3,2,1,1,0,0,108.7804,91.103,1.3888,-17.6774,20,
104,1,5,1,263,0,136.1479,165.0346,318.8332,0,0,0,2,0,0,0,165.0346,186.4998,1.6665,21.4652,10,
104,1,5,1,264,1,197.5948,19.1099,348.1851,3,1,2,2,0,0,1,19.1099,13.0904,1.3262,-6.0195,30,
104,1,5,1,265,0,107.0495,196.8559,226.1343,0,0,0,1,0,0,0,107.0495,98.2622,2.2845,-8.7872,30,
104,1,5,1,266,0,168.9651,139.0778,48.7606,0,0,0,3,0,0,0,48.7606,49.4453,1.0552,0.6847,40,
104,1,5,1,267,0,317.7818,139.8454,168.4456,0,0,0,1,0,0,0,317.7818,81.8861,1.729,124.1043,0,
104,1,5,1,268,0,345.0331,197.9865,288.2959,0,0,0,2,0,0,0,197.9865,195.3393,0.94434,-2.6472,40,
104,1,5,1,269,1,168.9406,229.348,288.9377,2,3,1,2,1,0,0,229.348,240.6748,1.0832,11.3268,30,
104,1,5,1,270,0,165.9414,106.621,288.5802,0,0,0,1,0,0,0,165.9414,168.7902,0.73604,2.8489,40,
104,1,5,1,271,1,168.5983,256.5138,47.2951,3,1,2,3,1,0,0,47.2951,70.3243,1.9234,23.0292,10,
104,1,5,1,272,1,17.1214,319.5277,287.0866,3,1,2,3,1,0,0,287.0866,299.0329,2.6872,11.9463,30,
104,1,5,1,273,1,285.9294,16.4572,317.3083,2,3,1,2,1,0,0,16.4572,0.95435,1.0903,-15.5029,20,
104,1,5,1,274,1,135.8698,195.5877,105.8702,3,2,1,3,1,0,0,105.8702,121.1082,2.701,15.238,20,
104,1,5,1,275,0,107.3868,259.4494,195.3254,0,0,0,1,0,0,0,107.3868,89.604,2.0275,-17.7828,20,
104,1,5,1,276,0,136.9238,347.8132,168.1692,0,0,0,3,0,0,0,168.1692,122.8753,1.479,-45.2939,0,
104,1,5,1,277,0,227.7422,136.0392,108.9229,0,0,0,1,0,0,0,227.7422,243.8523,1.0971,16.1102,20,
104,1,5,1,278,1,138.9978,348.9808,289.7704,3,1,2,3,1,0,0,289.7704,250.9535,0.8333,-38.817,0,
104,1,5,1,279,1,136.8617,167.0285,17.1941,1,3,2,1,1,0,0,136.8617,127.723,1.3262,-9.1386,30,
104,1,5,1,280,1,318.5183,259.5948,138.3004,1,3,2,1,1,0,0,318.5183,328.1897,1.2294,9.6715,30,
104,1,5,1,281,0,225.1476,257.3617,288.3922,0,0,0,1,0,0,0,225.1476,246.3664,2.048,21.2188,10,
104,1,5,1,282,1,19.5042,105.6908,48.9704,3,1,2,3,1,0,0,48.9704,45.9993,1.3749,-2.9711,40,
104,1,5,1,283,1,45.9366,77.7282,136.2756,3,1,2,1,0,1,0,45.9366,56.6856,1.3193,10.749,30,
104,1,5,1,284,1,169.4306,45.747,257.1734,3,1,2,3,1,0,0,257.1734,228.7289,1.0138,-28.4445,10,
104,1,5,1,285,1,287.5569,16.0754,106.7305,1,3,2,3,0,1,0,106.7305,92.3538,1.6734,-14.3767,20,
104,1,5,1,286,0,287.3987,75.9933,316.1951,0,0,0,3,0,0,0,316.1951,309.6783,2.3053,-6.5167,30,
104,1,5,1,287,1,259.6331,285.4745,76.8771,2,3,1,3,0,1,0,76.8771,94.6138,1.6387,17.7367,20,
104,1,5,1,288,0,197.3872,316.5277,47.5817,0,0,0,3,0,0,0,47.5817,63.3298,2.4164,15.7481,20,
104,1,5,1,289,0,319.7979,108.851,79.3751,0,0,0,1,0,0,0,319.7979,270.5146,1.6177,-49.2834,0,
104,1,5,1,290,0,16.3184,229.58,348.0752,0,0,0,2,0,0,0,229.58,223.6793,1.0693,-5.9007,30,
104,1,5,1,291,1,347.7596,17.0191,198.7506,3,1,2,3,1,0,0,198.7506,103.1775,1.0832,-95.573,0,
104,1,5,1,292,1,229.2868,75.9901,315.778,2,3,1,2,1,0,0,75.9901,49.6805,0.90939,-26.3096,10,
104,1,5,1,293,1,76.7418,17.4316,258.3976,1,3,2,1,1,0,0,76.7418,72.2122,1.0346,-4.5297,30,
104,1,5,1,294,0,139.9652,345.4822,196.5657,0,0,0,2,0,0,0,345.4822,342.0013,1.1664,-3.4808,30,
104,1,5,1,295,0,258.5304,135.1951,198.0815,0,0,0,3,0,0,0,198.0815,191.5662,1.4443,-6.5152,30,
104,1,5,1,296,0,79.9196,45.2887,106.9827,0,0,0,1,0,0,0,79.9196,80.6226,1.9858,0.70295,40,
104,1,5,1,297,1,139.4131,317.1872,79.1748,1,2,3,1,1,0,0,139.4131,152.3458,1.7359,12.9326,20,
104,1,5,1,298,1,169.0204,227.8133,108.7544,2,1,3,3,0,0,1,108.7544,128.9437,1.6248,20.1893,20,
104,1,5,1,299,0,15.6194,315.9312,168.2325,0,0,0,1,0,0,0,15.6194,163.0957,1.0554,147.4763,0,
104,1,5,1,300,1,108.8763,47.9592,16.8809,2,3,1,2,1,0,0,47.9592,60.5841,1.8748,12.6249,20,
104,1,6,1,301,1,46.9234,135.2004,227.9147,2,3,1,2,1,0,0,135.2004,164.3969,0.99295,29.1965,10,
104,1,6,1,302,1,195.7893,347.5433,258.0165,3,1,2,3,1,0,0,258.0165,41.3272,1.8609,143.3107,0,
104,1,6,1,303,0,16.8971,197.9642,135.3425,0,0,0,2,0,0,0,197.9642,203.6473,1.9373,5.683,30,
104,1,6,1,304,1,347.1749,287.7893,258.1939,3,2,1,3,1,0,0,258.1939,237.0645,0.86792,-21.1294,10,
104,1,6,1,305,0,16.4771,196.8306,76.7452,0,0,0,3,0,0,0,76.7452,77.2578,1.2775,0.51253,40,
104,1,6,1,306,1,317.1352,167.8886,349.4976,2,1,3,2,1,0,0,167.8886,161.1318,1.7012,-6.7569,30,
104,1,6,1,307,0,349.4673,318.2654,15.2014,0,0,0,2,0,0,0,318.2654,327.3663,1.7496,9.1009,30,
104,1,6,1,308,1,348.6462,168.243,137.3733,3,2,1,3,1,0,0,137.3733,105.4997,1.5693,-31.8736,0,
104,1,6,1,309,1,136.4477,45.0925,348.5075,1,3,2,1,1,0,0,136.4477,161.0244,2.7429,24.5767,10,
104,1,6,1,310,0,315.7111,256.8779,168.9678,0,0,0,2,0,0,0,256.8779,244.0113,1.3127,-12.8666,20,
104,1,6,1,311,1,169.758,196.7334,286.4866,3,2,1,3,1,0,0,286.4866,292.2513,1.1873,5.7647,30,
104,1,6,1,312,0,259.5246,346.4085,138.0694,0,0,0,3,0,0,0,138.0694,124.2599,1.8053,-13.8095,20,
104,1,6,1,313,0,225.0449,48.5914,257.2471,0,0,0,2,0,0,0,48.5914,56.1896,2.1386,7.5982,30,
104,1,6,1,314,0,109.9422,346.2555,196.5774,0,0,0,1,0,0,0,109.9422,101.6236,2.4789,-8.3186,30,
104,1,6,1,315,1,46.3042,227.4654,109.2792,2,3,1,2,1,0,0,227.4654,226.4376,3.3885,-1.0278,40,
104,1,6,1,316,0,257.3016,227.5784,76.36,0,0,0,3,0,0,0,76.36,67.2475,1.4026,-9.1125,30,
104,1,6,1,317,0,257.7944,16.1293,135.5226,0,0,0,2,0,0,0,16.1293,6.2019,1.9513,-9.9274,30,
104,1,6,1,318,1,19.299,47.9853,288.2738,3,2,1,1,0,0,1,19.299,7.8939,2.1109,-11.4052,30,
104,1,6,1,319,1,195.14,255.3342,79.6353,2,1,3,3,0,0,1,79.6353,253.7899,1.1874,174.1546,0,
104,1,6,1,320,1,15.1824,255.3184,106.6144,2,1,3,2,1,0,0,255.3184,273.4797,1.2777,18.1613,20,
104,1,6,1,321,1,107.9897,225.1151,19.4971,3,2,1,3,1,0,0,19.4971,25.607,1.4793,6.1099,30,
104,1,6,1,322,1,197.2525,47.8892,285.3742,1,2,3,2,0,1,0,47.8892,26.6887,1.1458,-21.2005,10,
104,1,6,1,323,1,17.2564,316.2498,139.7772,1,3,2,1,1,0,0,17.2564,54.0027,2.0897,36.7464,0,
104,1,6,1,324,0,17.2228,288.1376,347.6732,0,0,0,1,0,0,0,17.2228,21.6959,1.4166,4.4731,30,
104,1,6,1,325,1,317.5363,165.5686,257.4522,1,2,3,1,1,0,0,317.5363,351.9063,1.8816,34.37,0,
104,1,6,1,326,0,47.5541,317.8229,199.9686,0,0,0,1,0,0,0,47.5541,60.8901,1.4234,13.336,20,
104,1,6,1,327,0,106.6799,75.7242,346.2244,0,0,0,3,0,0,0,346.2244,0.28826,1.2082,14.0639,20,
104,1,6,1,328,1,169.2888,79.31,346.5665,3,2,1,3,1,0,0,346.5665,340.4605,1.3054,-6.106,30,
104,1,6,1,329,1,319.3634,106.4291,198.2842,3,1,2,3,1,0,0,198.2842,175.4381,1.9373,-22.8462,10,
104,1,6,1,330,0,349.5954,197.0535,78.6618,0,0,0,2,0,0,0,197.0535,274.4651,1.8816,77.4116,0,
104,1,6,1,331,1,15.0076,347.81,287.7324,2,3,1,3,0,1,0,287.7324,85.0853,0.94432,157.3528,0,
104,1,6,1,332,1,285.9061,227.1312,255.4908,3,2,1,3,1,0,0,255.4908,277.0312,0.98601,21.5403,10,
104,1,6,1,333,0,345.6878,197.1204,228.8228,0,0,0,2,0,0,0,197.1204,198.1497,2.0484,1.0293,40,
104,1,6,1,334,0,165.8893,259.9342,75.085,0,0,0,3,0,0,0,75.085,94.3062,2.9162,19.2212,20,
104,1,6,1,335,1,18.1545,289.4599,318.367,2,1,3,2,1,0,0,289.4599,255.166,2.2568,-34.2939,0,
104,1,6,1,336,1,227.6908,319.5507,166.7535,2,3,1,2,1,0,0,319.5507,323.0061,1.1175,3.4554,30,
104,1,6,1,337,1,256.578,109.9701,229.9195,3,1,2,3,1,0,0,229.9195,243.5323,1.2427,13.6129,20,
104,1,6,1,338,1,258.626,319.1718,285.0945,1,2,3,1,1,0,0,258.626,264.7036,1.8258,6.0776,30,
104,1,6,1,339,1,289.6574,136.8901,18.0884,3,2,1,2,0,1,0,136.8901,133.2657,2.0067,-3.6245,30,
104,1,6,1,340,1,107.9087,195.499,225.833,2,1,3,2,1,0,0,195.499,197.5566,1.6248,2.0576,40,
104,1,6,1,341,0,19.4256,46.0482,167.4018,0,0,0,3,0,0,0,167.4018,182.7521,1.5901,15.3503,20,
104,1,6,1,342,1,78.6958,106.2681,18.5963,3,1,2,2,0,0,1,106.2681,60.1634,0.70131,-46.1047,0,
104,1,6,1,343,0,258.1371,347.3141,105.6472,0,0,0,3,0,0,0,105.6472,116.7419,1.6804,11.0947,30,
104,1,6,1,344,0,229.993,137.5676,346.9392,0,0,0,3,0,0,0,346.9392,28.8761,1.9025,41.9369,0,
104,1,6,1,345,1,199.8122,16.5687,48.9854,3,2,1,2,0,1,0,16.5687,9.9675,2.2428,-6.6012,30,
104,1,6,1,346,1,49.5963,169.9447,79.663,3,1,2,3,1,0,0,79.663,60.7035,1.1456,-18.9595,20,
104,1,6,1,347,1,195.941,315.5034,346.4328,3,2,1,3,1,0,0,346.4328,74.0604,0.8887,87.6276,0,
104,1,6,1,348,0,106.7758,228.1557,19.3227,0,0,0,2,0,0,0,228.1557,240.367,2.9094,12.2113,20,
104,1,6,1,349,1,16.1481,136.7947,46.8158,3,1,2,3,1,0,0,46.8158,49.0538,1.4928,2.238,40,
104,1,6,1,350,0,346.4404,166.8831,225.7325,0,0,0,1,0,0,0,346.4404,141.2053,0.94431,154.7649,0,
104,1,6,1,351,1,255.7971,226.3939,18.2247,3,1,2,3,1,0,0,18.2247,18.0084,1.2151,-0.21625,40,
104,1,6,1,352,0,75.5483,347.8292,256.3717,0,0,0,3,0,0,0,256.3717,244.8177,1.2776,-11.5539,30,
104,1,6,1,353,1,288.1388,77.2337,19.0555,1,2,3,2,0,1,0,77.2337,82.6822,1.4516,5.4485,30,
104,1,6,1,354,1,196.9487,15.7521,166.6685,2,1,3,3,0,0,1,166.6685,95.4457,1.229,-71.2228,0,
104,1,6,1,355,1,106.9478,257.4507,79.4345,1,3,2,1,1,0,0,106.9478,106.606,1.1804,-0.34182,40,
104,1,6,1,356,0,319.31,345.6282,258.2279,0,0,0,1,0,0,0,319.31,317.3657,1.4443,-1.9443,40,
104,1,6,1,357,1,138.9567,288.2831,107.7184,1,3,2,3,0,1,0,107.7184,99.4085,1.361,-8.3099,30,
104,1,6,1,358,1,315.156,289.1379,16.3213,2,3,1,3,0,1,0,16.3213,37.8904,2.2081,21.5691,10,
104,1,6,1,359,1,258.0154,135.9201,225.4373,1,3,2,2,0,0,1,135.9201,219.9409,4.5967,84.0208,0,
104,1,6,1,360,1,139.5235,198.8365,47.8133,3,1,2,3,1,0,0,47.8133,37.3261,1.2984,-10.4873,30,
104,1,7,2,361,0,137.7436,195.0777,75.4734,0,0,0,2,0,0,0,195.0777,193.4494,1.0138,-1.6283,40,
104,1,7,2,362,1,256.7246,198.4634,348.583,2,3,1,2,1,0,0,198.4634,194.3067,1.0346,-4.1568,30,
104,1,7,2,363,1,135.1638,79.2181,258.8515,3,2,1,2,0,1,0,79.2181,NaN,100000,999,0,
104,1,7,2,364,1,318.2542,229.9111,195.9692,2,1,3,2,1,0,0,229.9111,241.4379,1.4581,11.5268,30,
104,1,7,2,365,1,108.4551,288.2361,228.1172,1,2,3,1,1,0,0,108.4551,102.8713,1.0064,-5.5838,30,
104,1,7,2,366,1,346.1287,288.3308,49.3567,3,1,2,3,1,0,0,49.3567,44.8099,1.2776,-4.5469,30,
104,1,7,2,367,0,228.7525,46.6696,168.1642,0,0,0,2,0,0,0,46.6696,56.63,1.09,9.9604,30,
104,1,7,2,368,1,226.3755,139.1398,258.9639,1,2,3,1,1,0,0,226.3755,231.8659,0.98602,5.4904,30,
104,1,7,2,369,0,79.0965,319.6324,17.5706,0,0,0,1,0,0,0,79.0965,79.5784,1.1735,0.48186,40,
104,1,7,2,370,0,319.6235,15.2778,76.9202,0,0,0,2,0,0,0,15.2778,50.6351,1.2291,35.3574,0,
104,1,7,2,371,1,319.6585,285.5445,48.2585,2,3,1,2,1,0,0,285.5445,303.7934,1.3123,18.2489,20,
104,1,7,2,372,1,106.2626,258.2717,15.3005,2,1,3,2,1,0,0,258.2717,288.4254,0.87455,30.1537,0,
104,1,7,2,373,1,49.0672,258.9382,345.6216,3,2,1,3,1,0,0,345.6216,352.8797,0.81942,7.2581,30,
104,1,7,2,374,1,166.1154,197.5488,18.9387,2,3,1,2,1,0,0,197.5488,186.0421,1.0833,-11.5067,30,
104,1,7,2,375,1,135.6449,196.0742,226.4641,2,1,3,2,1,0,0,196.0742,187.8655,0.96519,-8.2087,30,
104,1,7,2,376,0,258.7972,46.9971,227.8371,0,0,0,3,0,0,0,227.8371,242.6007,1.4442,14.7636,20,
104,1,7,2,377,1,19.3937,136.9647,106.2132,2,3,1,1,0,0,1,19.3937,66.3758,1.0901,46.9822,0,
104,1,7,2,378,1,198.1299,16.6345,346.5555,1,3,2,1,1,0,0,198.1299,197.4709,1.8332,-0.65905,40,
104,1,7,2,379,0,255.9533,317.2465,78.8433,0,0,0,2,0,0,0,317.2465,315.9626,1.6804,-1.2839,40,
104,1,7,2,380,1,106.7368,288.8994,198.5417,2,1,3,2,1,0,0,288.8994,305.7707,1.7637,16.8713,20,
104,1,7,2,381,0,226.6913,289.8702,169.7739,0,0,0,3,0,0,0,169.7739,8.8654,3.0482,-160.9085,0,
104,1,7,2,382,1,75.0635,45.6611,226.9403,2,3,1,3,0,1,0,226.9403,NaN,100000,999,0,
104,1,7,2,383,0,195.7207,48.1759,349.0121,0,0,0,1,0,0,0,195.7207,179.1341,1.8058,-16.5866,20,
104,1,7,2,384,1,135.4763,286.2294,199.6733,3,1,2,1,0,1,0,135.4763,NaN,100000,999,0,
104,1,7,2,385,1,107.2227,346.6329,286.4365,3,2,1,1,0,0,1,107.2227,92.7607,1.3121,-14.462,20,
104,1,7,2,386,0,167.3073,257.9357,47.388,0,0,0,1,0,0,0,167.3073,165.4191,1.7984,-1.8881,40,
104,1,7,2,387,1,105.1816,45.943,347.8877,1,3,2,1,1,0,0,105.1816,125.6032,1.0971,20.4216,20,
104,1,7,2,388,0,197.7527,139.9306,168.4489,0,0,0,2,0,0,0,139.9306,164.548,1.9512,24.6174,10,
104,1,7,2,389,0,106.463,49.1621,137.8526,0,0,0,3,0,0,0,137.8526,147.2182,1.6943,9.3656,30,
104,1,7,2,390,1,18.0356,289.7875,76.6533,2,1,3,2,1,0,0,289.7875,292.105,0.80561,2.3175,40,
104,1,7,2,391,1,45.3576,315.0784,289.8684,3,2,1,3,1,0,0,289.8684,296.182,1.6943,6.3136,30,
104,1,7,2,392,1,78.5901,105.9445,317.1697,3,1,2,2,0,0,1,105.9445,120.1209,1.3054,14.1764,20,
104,1,7,2,393,0,319.7139,18.3713,226.9283,0,0,0,2,0,0,0,18.3713,0.95435,3.8467,-17.4169,20,
104,1,7,2,394,1,196.9913,225.6865,319.7638,2,3,1,1,0,0,1,196.9913,197.0657,0.90263,0.074367,40,
104,1,7,2,395,1,75.4069,138.9374,255.872,1,2,3,3,0,0,1,255.872,260.495,1.2086,4.623,30,
104,1,7,2,396,1,347.3247,229.1204,79.3594,2,3,1,3,0,1,0,79.3594,NaN,100000,999,0,
104,1,7,2,397,1,199.4692,169.205,48.4164,1,2,3,1,1,0,0,199.4692,195.4904,0.95131,-3.9788,30,
104,1,7,2,398,1,106.0224,15.3143,48.1119,3,2,1,3,1,0,0,48.1119,18.9677,0.72905,-29.1442,10,
104,1,7,2,399,0,347.7221,289.2307,45.2035,0,0,0,2,0,0,0,289.2307,296.5126,1.923,7.2819,30,
104,1,7,2,400,0,288.0459,259.8347,198.8666,0,0,0,3,0,0,0,198.8666,41.5258,2.708,-157.3408,0,
104,1,7,2,401,1,138.5923,169.9766,75.4185,3,1,2,3,1,0,0,75.4185,69.3555,1.1526,-6.063,30,
104,1,7,2,402,0,138.4918,47.2984,315.7883,0,0,0,2,0,0,0,47.2984,48.9561,1.2013,1.6577,40,
104,1,7,2,403,1,318.6274,135.6952,168.1628,1,3,2,1,1,0,0,318.6274,312.6414,2.1109,-5.9861,30,
104,1,7,2,404,1,198.2711,316.0916,345.5957,1,3,2,1,1,0,0,198.2711,211.7112,1.6315,13.4401,20,
104,1,7,2,405,0,19.5455,197.2517,168.7432,0,0,0,2,0,0,0,197.2517,27.3455,1.4099,-169.9062,0,
104,1,7,2,406,1,196.9978,48.2766,317.8342,2,3,1,3,0,1,0,317.8342,NaN,100000,999,0,
104,1,7,2,407,1,18.4428,258.0195,106.9348,2,3,1,1,0,0,1,18.4428,20.9894,1.3888,2.5466,40,
104,1,7,2,408,0,18.089,137.9711,318.3294,0,0,0,3,0,0,0,318.3294,304.7132,1.562,-13.6162,20,
104,1,7,2,409,0,285.4329,319.6342,15.7424,0,0,0,3,0,0,0,15.7424,21.5988,1.5831,5.8564,30,
104,1,7,2,410,1,167.2618,137.6668,287.6333,3,2,1,3,1,0,0,287.6333,303.2081,5.2839,15.5748,20,
104,1,7,2,411,1,257.6176,76.6841,136.6619,2,1,3,1,0,1,0,257.6176,NaN,100000,999,0,
104,1,7,2,412,1,318.6127,255.6712,169.2655,2,1,3,2,1,0,0,255.6712,246.6269,1.472,-9.0444,30,
104,1,7,2,413,0,195.6399,167.3218,78.713,0,0,0,3,0,0,0,78.713,69.1567,1.3123,-9.5563,30,
104,1,7,2,414,0,255.0215,348.2625,136.8484,0,0,0,3,0,0,0,136.8484,50.3243,1.6112,-86.5241,0,
104,1,7,2,415,1,169.2599,195.5886,108.2863,2,1,3,1,0,1,0,169.2599,NaN,100000,999,0,
104,1,7,2,416,0,108.0519,256.2399,137.5898,0,0,0,3,0,0,0,137.5898,128.286,2.1941,-9.3038,30,
104,1,7,2,417,1,315.776,79.9704,137.2512,2,1,3,3,0,0,1,137.2512,146.8005,1.5902,9.5493,30,
104,1,7,2,418,0,109.5576,45.6649,285.2108,0,0,0,1,0,0,0,109.5576,83.8614,1.1944,-25.6962,10,
104,1,7,2,419,1,285.9982,227.6508,348.1368,1,2,3,1,1,0,0,285.9982,276.8016,1.3263,-9.1966,30,
104,1,7,2,420,1,285.1161,195.8806,349.3046,1,2,3,3,0,0,1,349.3046,16.6813,1.3819,27.3767,10,
104,1,8,2,421,0,139.1592,226.9724,75.4832,0,0,0,1,0,0,0,139.1592,159.5453,0.9652,20.386,20,
104,1,8,2,422,0,258.0006,19.9983,285.6459,0,0,0,3,0,0,0,285.6459,278.1114,1.2846,-7.5345,30,
104,1,8,2,423,0,347.863,79.9688,136.8148,0,0,0,2,0,0,0,79.9688,63.0132,1.097,-16.9556,20,
104,1,8,2,424,0,138.8927,289.0539,347.4898,0,0,0,1,0,0,0,138.8927,159.4435,1.472,20.5507,20,
104,1,8,2,425,1,139.122,45.8653,229.3182,2,3,1,2,1,0,0,45.8653,51.1486,2.2636,5.2833,30,
104,1,8,2,426,1,138.0311,78.9619,49.1808,3,1,2,2,0,0,1,78.9619,72.9824,0.69406,-5.9795,30,
104,1,8,2,427,0,46.1867,195.6983,256.1037,0,0,0,1,0,0,0,46.1867,70.8107,1.8539,24.624,10,
104,1,8,2,428,1,346.4768,289.5354,227.4644,2,1,3,2,1,0,0,289.5354,300.6058,1.236,11.0704,30,
104,1,8,2,429,1,47.187,79.2999,15.0445,2,1,3,2,1,0,0,79.2999,52.576,1.0693,-26.7238,10,
104,1,8,2,430,1,79.2645,348.4328,109.7906,2,1,3,2,1,0,0,348.4328,357.3857,1.7637,8.9529,30,
104,1,8,2,431,1,166.9384,345.2837,198.4479,1,3,2,1,1,0,0,166.9384,160.9159,0.79849,-6.0225,30,
104,1,8,2,432,1,46.1005,196.179,169.0506,1,2,3,2,0,1,0,196.179,NaN,100000,999,0,
104,1,8,2,433,0,285.1488,259.3335,319.4721,0,0,0,1,0,0,0,285.1488,291.4437,1.6458,6.295,30,
104,1,8,2,434,1,315.0558,256.1726,168.5349,1,3,2,1,1,0,0,315.0558,170.272,4.5064,-144.7838,0,
104,1,8,2,435,0,138.3282,106.1507,49.0244,0,0,0,3,0,0,0,49.0244,37.8175,0.72217,-11.2069,30,
104,1,8,2,436,0,167.1549,138.8245,349.9823,0,0,0,3,0,0,0,349.9823,350.8044,3.7148,0.82209,40,
104,1,8,2,437,1,107.9765,77.5306,228.882,1,2,3,2,0,1,0,77.5306,NaN,100000,999,0,
104,1,8,2,438,1,165.7078,228.0405,49.6531,2,1,3,1,0,1,0,165.7078,NaN,100000,999,0,
104,1,8,2,439,1,348.1345,49.685,316.5997,3,1,2,3,1,0,0,316.5997,296.928,1.1665,-19.6717,20,
104,1,8,2,440,1,75.7592,348.6651,45.1985,1,3,2,2,0,0,1,348.6651,354.5456,1.2292,5.8806,30,
104,1,8,2,441,0,166.6833,319.4168,46.6683,0,0,0,1,0,0,0,166.6833,170.5041,0.83327,3.8208,30,
104,1,8,2,442,0,78.6986,197.224,109.252,0,0,0,2,0,0,0,197.224,188.8396,1.3054,-8.3843,30,
104,1,8,2,443,1,227.4811,166.4383,105.9151,2,3,1,2,1,0,0,166.4383,182.053,0.96517,15.6147,20,
104,1,8,2,444,0,226.7599,195.5008,288.965,0,0,0,3,0,0,0,288.965,277.9988,1.3679,-10.9662,30,
104,1,8,2,445,1,228.4323,319.7786,106.5395,3,1,2,3,1,0,0,106.5395,30.2684,2.3608,-76.2711,0,
104,1,8,2,446,1,79.7326,317.4622,348.7411,2,1,3,2,1,0,0,317.4622,307.8832,1.9925,-9.579,30,
104,1,8,2,447,0,45.9115,197.797,18.1324,0,0,0,2,0,0,0,197.797,194.673,1.8192,-3.124,30,
104,1,8,2,448,1,18.6621,168.1551,287.341,1,3,2,3,0,1,0,287.341,NaN,100000,999,0,
104,1,8,2,449,1,136.0884,285.0426,346.5031,3,1,2,3,1,0,0,346.5031,7.9644,1.132,21.4612,10,
104,1,8,2,450,1,315.1533,349.0435,225.2357,3,1,2,1,0,1,0,315.1533,NaN,100000,999,0,
104,1,8,2,451,1,138.6936,315.0693,168.3956,3,1,2,3,1,0,0,168.3956,189.6543,1.6595,21.2587,10,
104,1,8,2,452,1,46.0342,105.1868,78.3168,1,3,2,1,1,0,0,46.0342,59.9789,1.3468,13.9447,20,
104,1,8,2,453,1,165.0947,45.9217,15.1337,3,1,2,3,1,0,0,15.1337,5.3596,1.5899,-9.7741,30,
104,1,8,2,454,1,348.5217,318.8731,289.1133,2,1,3,1,0,1,0,348.5217,NaN,100000,999,0,
104,1,8,2,455,1,139.6704,47.9709,317.9655,1,2,3,1,1,0,0,139.6704,147.3142,1.2221,7.6438,30,
104,1,8,2,456,1,286.0016,45.0729,168.8158,1,3,2,3,0,1,0,168.8158,NaN,100000,999,0,
104,1,8,2,457,0,195.2941,256.1198,15.8399,0,0,0,1,0,0,0,195.2941,192.4521,1.2082,-2.842,40,
104,1,8,2,458,1,138.5184,169.1855,258.6365,3,2,1,1,0,0,1,138.5184,152.9845,1.1593,14.4661,20,
104,1,8,2,459,0,19.902,108.5641,259.1282,0,0,0,1,0,0,0,19.902,10.1801,1.6039,-9.7219,30,
104,1,8,2,460,1,108.5872,226.0126,318.2188,3,1,2,3,1,0,0,318.2188,269.5035,0.99298,-48.7153,0,
104,1,8,2,461,0,19.6597,105.4666,288.6939,0,0,0,2,0,0,0,105.4666,107.947,1.2429,2.4804,40,
104,1,8,2,462,1,109.9663,18.7877,196.3753,1,2,3,2,0,1,0,18.7877,NaN,100000,999,0,
104,1,8,2,463,0,139.1878,168.7421,197.9193,0,0,0,3,0,0,0,197.9193,208.7705,2.5482,10.8512,30,
104,1,8,2,464,0,136.7104,259.36,16.3401,0,0,0,1,0,0,0,136.7104,97.6883,1.8401,-39.0222,0,
104,1,8,2,465,1,136.4382,79.6219,316.4924,2,1,3,2,1,0,0,79.6219,70.5216,3.4927,-9.1002,30,
104,1,8,2,466,1,196.6333,136.0981,167.5911,2,1,3,3,0,0,1,167.5911,190.1887,0.8261,22.5976,10,
104,1,8,2,467,1,226.3809,318.4812,259.4068,2,1,3,2,1,0,0,318.4812,341.3366,1.6457,22.8554,10,
104,1,8,2,468,1,18.9916,169.3163,138.9898,1,3,2,1,1,0,0,18.9916,62.084,1.111,43.0925,0,
104,1,8,2,469,1,15.3526,75.3001,108.3079,3,1,2,3,1,0,0,108.3079,80.5115,2.6733,-27.7964,10,
104,1,8,2,470,0,46.2786,346.8916,169.9687,0,0,0,1,0,0,0,46.2786,70.4844,1.1874,24.2057,10,
104,1,8,2,471,1,345.2622,106.6171,78.9984,3,2,1,1,0,0,1,345.2622,353.3336,1.6734,8.0714,30,
104,1,8,2,472,0,348.2674,166.2214,78.7896,0,0,0,3,0,0,0,78.7896,71.4809,1.0972,-7.3087,30,
104,1,8,2,473,1,106.559,257.9588,76.8881,1,3,2,1,1,0,0,106.559,81.1446,1.5415,-25.4144,10,
104,1,8,2,474,0,317.6116,229.0412,257.2379,0,0,0,3,0,0,0,257.2379,85.4352,2.5068,-171.8027,0,
104,1,8,2,475,0,287.5106,197.8513,19.2574,0,0,0,1,0,0,0,287.5106,281.0469,1.5481,-6.4638,30,
104,1,8,2,476,1,227.7234,199.2796,318.2134,3,1,2,3,1,0,0,318.2134,301.9621,0.52079,-16.2514,20,
104,1,8,2,477,1,76.0947,286.1864,255.0432,2,3,1,2,1,0,0,286.1864,288.2681,1.472,2.0817,40,
104,1,8,2,478,0,317.4562,198.8708,225.7391,0,0,0,3,0,0,0,225.7391,120.8643,2.3608,-104.8748,0,
104,1,8,2,479,0,46.7157,195.3171,168.0624,0,0,0,1,0,0,0,46.7157,55.2592,3.402,8.5435,30,
104,1,8,2,480,1,285.5423,79.2688,319.5543,2,1,3,2,1,0,0,79.2688,95.3627,2.0484,16.0939,20,
