Subject,Session,Block,Condition,Trial,whetherCued,leftStim,rightStim,midStim,remCueLoc,fogCueLoc,neutralCueLoc,probeCueLoc,probeRem,probeForget,probeNeutral,Target,Estimate,RT,Error,Points
116,1,1,2,1,0,49.7896,79.9464,316.1134,0,0,0,3,0,0,0,316.1134,29.3396,1.0824,73.2262,0,
116,1,1,2,2,0,77.0194,199.4614,227.103,0,0,0,2,0,0,0,199.4614,206.4546,1.4442,6.9932,30,
116,1,1,2,3,1,107.3167,76.231,48.7899,1,3,2,1,1,0,0,107.3167,16.6587,1.1874,-90.658,0,
116,1,1,2,4,1,46.5011,229.286,259.0886,1,2,3,1,1,0,0,46.5011,53.6189,2.0964,7.1178,30,
116,1,1,2,5,1,167.7587,285.8897,225.4277,3,2,1,3,1,0,0,225.4277,261.9009,1.2083,36.4732,0,
116,1,1,2,6,0,139.4448,16.7913,257.1701,0,0,0,2,0,0,0,16.7913,327.6982,1.25,-49.0931,0,
116,1,1,2,7,0,287.5328,228.5846,106.5061,0,0,0,2,0,0,0,228.5846,219.6494,1.6942,-8.9352,30,
116,1,1,2,8,1,285.7947,107.626,166.5987,3,1,2,3,1,0,0,166.5987,179.6207,1.1112,13.022,20,
116,1,1,2,9,1,45.2874,135.0467,79.1546,3,1,2,3,1,0,0,79.1546,67.9883,0.85415,-11.1663,30,
116,1,1,2,10,0,79.647,105.642,46.1049,0,0,0,2,0,0,0,105.642,233.4985,1.0208,127.8565,0,
116,1,1,2,11,1,136.1606,18.991,46.1892,1,3,2,2,0,0,1,18.991,51.8216,1.3958,32.8305,0,
116,1,1,2,12,1,79.8082,137.2081,288.4624,2,3,1,2,1,0,0,137.2081,83.0405,1.486,-54.1676,0,
116,1,1,2,13,0,109.8696,78.5771,198.492,0,0,0,3,0,0,0,198.492,147.0656,0.96521,-51.4263,0,
116,1,1,2,14,1,257.1834,225.656,198.267,3,1,2,3,1,0,0,198.267,229.2477,1.1457,30.9807,0,
116,1,1,2,15,1,288.0548,167.4508,77.2238,2,1,3,2,1,0,0,167.4508,174.6481,1.3192,7.1972,30,
116,1,1,2,16,0,49.7556,255.3335,19.7307,0,0,0,1,0,0,0,49.7556,45.6313,2.0832,-4.1243,30,
116,1,1,2,17,1,45.2934,319.0682,76.7284,2,3,1,2,1,0,0,319.0682,317.5291,1.1527,-1.5392,40,
116,1,1,2,18,1,286.8599,346.6542,105.0926,2,1,3,2,1,0,0,346.6542,331.3294,0.93742,-15.3249,20,
116,1,1,2,19,1,285.6755,229.6926,197.3393,1,3,2,1,1,0,0,285.6755,304.4508,1.2776,18.7753,20,
116,1,1,2,20,1,139.9254,167.2356,75.3731,3,2,1,3,1,0,0,75.3731,87.1959,1.0485,11.8228,30,
116,1,1,2,21,1,197.0647,19.8204,227.9956,2,1,3,1,0,1,0,197.0647,NaN,100000,999,0,
116,1,1,2,22,1,78.4508,138.1395,108.8821,1,3,2,3,0,1,0,108.8821,NaN,100000,999,0,
116,1,1,2,23,1,45.2953,226.1567,319.6772,2,1,3,2,1,0,0,226.1567,232.1873,1.0069,6.0306,30,
116,1,1,2,24,1,225.5774,45.6965,137.0227,1,3,2,1,1,0,0,225.5774,240.6864,1.1736,15.109,20,
116,1,1,2,25,1,135.8829,345.8672,79.2824,1,3,2,2,0,0,1,345.8672,230.7306,1.0277,-115.1366,0,
116,1,1,2,26,1,139.625,347.4725,106.1053,3,2,1,3,1,0,0,106.1053,126.1404,1.2916,20.0351,20,
116,1,1,2,27,1,49.1854,227.8516,108.9154,2,1,3,3,0,0,1,108.9154,102.6086,1.0208,-6.3068,30,
116,1,1,2,28,1,136.265,229.3607,287.681,3,1,2,2,0,0,1,229.3607,269.7541,1.5277,40.3934,0,
116,1,1,2,29,1,199.1968,317.8928,256.3782,2,1,3,2,1,0,0,317.8928,295.6789,1.6527,-22.2139,10,
116,1,1,2,30,0,169.6031,226.8127,315.3177,0,0,0,3,0,0,0,315.3177,302.9445,0.99985,-12.3732,20,
116,1,1,2,31,0,347.8238,165.2285,49.6889,0,0,0,1,0,0,0,347.8238,178.8567,0.72911,-168.9671,0,
116,1,1,2,32,1,135.9108,16.6392,345.1189,2,1,3,2,1,0,0,16.6392,348.3571,0.88884,-28.2822,10,
116,1,1,2,33,0,19.1732,169.0778,287.7741,0,0,0,2,0,0,0,169.0778,21.5895,0.97219,-147.4883,0,
116,1,1,2,34,0,167.3649,288.591,225.64,0,0,0,3,0,0,0,225.64,232.7058,1.2151,7.0657,30,
116,1,1,2,35,1,135.7817,225.654,195.8518,2,1,3,2,1,0,0,225.654,224.0348,1.3609,-1.6191,40,
116,1,1,2,36,0,168.3601,139.042,18.3845,0,0,0,1,0,0,0,168.3601,182.0214,1.6458,13.6613,20,
116,1,1,2,37,1,136.23,167.0824,226.8499,1,3,2,3,0,1,0,226.8499,NaN,100000,999,0,
116,1,1,2,38,1,135.2984,49.8434,105.3275,1,2,3,3,0,0,1,105.3275,98.3293,1.3679,-6.9983,30,
116,1,1,2,39,1,138.8971,45.4316,75.8945,3,2,1,3,1,0,0,75.8945,105.1555,0.8333,29.261,10,
116,1,1,2,40,1,105.0693,46.3358,169.6604,2,1,3,2,1,0,0,46.3358,54.6312,0.81936,8.2954,30,
116,1,1,2,41,0,49.4302,315.5335,108.1016,0,0,0,3,0,0,0,108.1016,108.3363,1.1943,0.23469,40,
116,1,1,2,42,0,139.8005,288.062,226.7679,0,0,0,1,0,0,0,139.8005,140.7489,0.98592,0.94833,40,
116,1,1,2,43,1,167.6678,48.1755,289.787,2,3,1,2,1,0,0,48.1755,60.8659,0.78473,12.6904,20,
116,1,1,2,44,1,197.9081,229.34,345.6535,3,1,2,2,0,0,1,229.34,54.7392,1.0903,-174.6008,0,
116,1,1,2,45,1,198.3868,316.8924,47.1722,2,3,1,2,1,0,0,316.8924,58.9941,0.95192,102.1017,0,
116,1,1,2,46,1,348.8737,46.761,135.9903,3,1,2,3,1,0,0,135.9903,118.452,1.229,-17.5384,20,
116,1,1,2,47,0,76.903,197.0924,45.3297,0,0,0,3,0,0,0,45.3297,111.1789,0.90274,65.8493,0,
116,1,1,2,48,1,136.5088,229.1604,288.8523,1,3,2,2,0,0,1,229.1604,222.7582,1.0346,-6.4022,30,
116,1,1,2,49,0,106.3387,229.2591,259.1417,0,0,0,3,0,0,0,259.1417,238.0654,1.2291,-21.0763,10,
116,1,1,2,50,0,225.4507,45.0226,165.9356,0,0,0,2,0,0,0,45.0226,62.985,1.3054,17.9624,20,
116,1,1,2,51,1,195.0187,348.9883,316.4683,2,1,3,2,1,0,0,348.9883,24.9819,1.2429,35.9936,0,
116,1,1,2,52,0,256.5477,167.6544,347.6966,0,0,0,2,0,0,0,167.6544,146.0454,1.4443,-21.609,10,
116,1,1,2,53,1,48.4942,167.3936,196.9609,3,2,1,3,1,0,0,196.9609,196.4012,0.87492,-0.55971,40,
116,1,1,2,54,1,77.8891,166.4372,198.8866,2,1,3,2,1,0,0,166.4372,183.0331,1.174,16.5959,20,
116,1,1,2,55,1,198.7267,319.6301,78.7633,1,2,3,2,0,1,0,319.6301,NaN,100000,999,0,
116,1,1,2,56,0,105.7815,18.9205,318.0679,0,0,0,1,0,0,0,105.7815,85.6444,0.97917,-20.1371,20,
116,1,1,2,57,1,195.9681,75.3757,135.4207,2,3,1,2,1,0,0,75.3757,86.9115,0.76378,11.5357,30,
116,1,1,2,58,1,318.4292,136.9758,259.457,2,3,1,2,1,0,0,136.9758,73.6405,1.1318,-63.3354,0,
116,1,1,2,59,0,315.8649,286.3007,139.7834,0,0,0,3,0,0,0,139.7834,136.9686,1.1944,-2.8148,40,
116,1,1,2,60,1,136.7631,349.82,167.8037,2,3,1,2,1,0,0,349.82,323.2676,1.2152,-26.5523,10,
116,1,2,2,61,1,167.6301,256.6044,226.4234,3,1,2,1,0,1,0,167.6301,NaN,100000,999,0,
116,1,2,2,62,1,137.7579,257.587,17.0248,1,2,3,1,1,0,0,137.7579,134.5916,1.3187,-3.1664,30,
116,1,2,2,63,0,285.1547,77.1619,137.0661,0,0,0,2,0,0,0,77.1619,60.4995,0.70146,-16.6624,20,
116,1,2,2,64,1,197.0842,169.933,47.6953,1,2,3,1,1,0,0,197.0842,173.1779,0.70129,-23.9063,10,
116,1,2,2,65,1,47.3388,286.9021,228.4623,3,2,1,3,1,0,0,228.4623,233.557,0.64578,5.0947,30,
116,1,2,2,66,1,45.9318,319.7526,199.9844,1,2,3,3,0,0,1,199.9844,256.3817,0.88882,56.3972,0,
116,1,2,2,67,1,288.4085,317.6472,79.1872,3,2,1,2,0,1,0,317.6472,NaN,100000,999,0,
116,1,2,2,68,1,139.781,167.5432,196.0515,1,3,2,1,1,0,0,139.781,159.3612,0.84019,19.5802,20,
116,1,2,2,69,0,168.3628,106.6193,138.1707,0,0,0,3,0,0,0,138.1707,130.1362,1.1805,-8.0345,30,
116,1,2,2,70,0,228.9821,76.543,197.543,0,0,0,3,0,0,0,197.543,218.9878,0.8193,21.4448,10,
116,1,2,2,71,1,228.8666,319.9715,256.5864,1,2,3,1,1,0,0,228.8666,204.689,0.98607,-24.1776,10,
116,1,2,2,72,0,315.7351,225.6485,78.3033,0,0,0,2,0,0,0,225.6485,207.2818,0.97907,-18.3667,20,
116,1,2,2,73,1,16.0743,46.4231,348.4227,2,3,1,2,1,0,0,46.4231,38.8605,1.1179,-7.5626,30,
116,1,2,2,74,0,316.6161,165.7748,79.37,0,0,0,1,0,0,0,316.6161,328.0767,1.3957,11.4606,30,
116,1,2,2,75,1,349.5712,315.4876,19.3216,2,3,1,2,1,0,0,315.4876,335.7455,0.95831,20.2579,20,
116,1,2,2,76,1,289.1401,197.774,316.6019,2,1,3,1,0,1,0,289.1401,NaN,100000,999,0,
116,1,2,2,77,1,318.2537,228.0656,288.7594,3,1,2,2,0,0,1,228.0656,214.1763,1.4861,-13.8892,20,
116,1,2,2,78,0,349.0518,288.638,19.0051,0,0,0,3,0,0,0,19.0051,13.5014,0.99997,-5.5037,30,
116,1,2,2,79,0,197.5932,318.5043,258.9229,0,0,0,1,0,0,0,197.5932,195.5483,1.9026,-2.0449,40,
116,1,2,2,80,0,166.6779,107.3901,136.1192,0,0,0,3,0,0,0,136.1192,153.0411,1.1249,16.9219,20,
116,1,2,2,81,1,168.0325,79.5655,107.8591,2,3,1,3,0,1,0,107.8591,NaN,100000,999,0,
116,1,2,2,82,0,47.4385,286.522,315.7046,0,0,0,1,0,0,0,47.4385,60.8161,0.90978,13.3776,20,
116,1,2,2,83,1,227.7914,108.7736,345.4821,3,1,2,2,0,0,1,108.7736,98.7912,1.0555,-9.9824,30,
116,1,2,2,84,1,168.4169,315.1683,229.6498,2,3,1,2,1,0,0,315.1683,307.5342,0.95141,-7.6341,30,
116,1,2,2,85,1,49.5929,136.842,287.8145,1,2,3,1,1,0,0,49.5929,57.1124,0.93052,7.5195,30,
116,1,2,2,86,0,198.5571,165.3131,135.3082,0,0,0,1,0,0,0,198.5571,175.5838,0.81939,-22.9732,10,
116,1,2,2,87,0,75.3939,198.178,228.081,0,0,0,1,0,0,0,75.3939,56.9463,1.1109,-18.4476,20,
116,1,2,2,88,1,257.4894,106.851,138.3061,2,3,1,2,1,0,0,106.851,101.2677,0.8333,-5.5833,30,
116,1,2,2,89,0,169.1381,257.1404,77.5215,0,0,0,3,0,0,0,77.5215,102.358,1.0902,24.8364,10,
116,1,2,2,90,0,346.4828,135.2291,258.9999,0,0,0,1,0,0,0,346.4828,9.5527,1.4924,23.0699,10,
116,1,2,2,91,1,169.8799,317.5524,76.9673,1,3,2,2,0,0,1,317.5524,322.7155,1.1666,5.1631,30,
116,1,2,2,92,0,225.729,345.8152,167.6929,0,0,0,3,0,0,0,167.6929,154.4022,1.1041,-13.2907,20,
116,1,2,2,93,1,285.6479,108.0648,139.8173,3,2,1,3,1,0,0,139.8173,141.2443,1.0416,1.427,40,
116,1,2,2,94,1,255.4049,19.5107,346.2637,2,3,1,2,1,0,0,19.5107,355.3785,1.0345,-24.1322,10,
116,1,2,2,95,1,166.5714,349.9771,315.9457,1,3,2,1,1,0,0,166.5714,161.483,0.7152,-5.0885,30,
116,1,2,2,96,0,227.3712,258.984,165.1243,0,0,0,1,0,0,0,227.3712,223.7926,1.0347,-3.5785,30,
116,1,2,2,97,0,286.0524,107.1747,199.6655,0,0,0,2,0,0,0,107.1747,98.1713,0.9096,-9.0034,30,
116,1,2,2,98,0,315.5124,45.1071,347.5846,0,0,0,1,0,0,0,315.5124,321.0382,1.2985,5.5258,30,
116,1,2,2,99,1,48.4294,349.0523,15.754,1,2,3,1,1,0,0,48.4294,14.6544,1.6531,-33.7751,0,
116,1,2,2,100,1,347.0692,136.3647,318.4482,3,1,2,3,1,0,0,318.4482,329.6744,0.90263,11.2261,30,
116,1,2,2,101,0,289.4533,259.4763,48.9716,0,0,0,1,0,0,0,289.4533,307.919,1.0485,18.4657,20,
116,1,2,2,102,0,135.2139,349.3533,79.4392,0,0,0,2,0,0,0,349.3533,85.7142,2.715,96.3609,0,
116,1,2,2,103,0,195.5347,47.2655,105.9686,0,0,0,1,0,0,0,195.5347,208.7025,0.91662,13.1678,20,
116,1,2,2,104,0,167.5928,47.1268,109.0606,0,0,0,1,0,0,0,167.5928,184.8715,1.1387,17.2787,20,
116,1,2,2,105,0,49.8763,256.4109,319.8779,0,0,0,3,0,0,0,319.8779,142.8782,1.4443,-176.9997,0,
116,1,2,2,106,1,109.997,319.404,45.1946,1,3,2,3,0,1,0,45.1946,NaN,100000,999,0,
116,1,2,2,107,1,288.5304,319.2904,76.3491,2,3,1,2,1,0,0,319.2904,313.6312,0.8126,-5.6592,30,
116,1,2,2,108,1,259.2226,16.9048,75.448,2,1,3,2,1,0,0,16.9048,359.7488,1.1179,-17.1561,20,
116,1,2,2,109,0,287.3023,107.8037,348.281,0,0,0,3,0,0,0,348.281,348.5056,0.68745,0.22461,40,
116,1,2,2,110,1,107.3051,76.5081,287.7735,1,3,2,1,1,0,0,107.3051,93.5658,1.0971,-13.7393,20,
116,1,2,2,111,1,287.4029,45.335,195.4102,2,1,3,3,0,0,1,195.4102,209.4018,0.8541,13.9915,20,
116,1,2,2,112,1,319.2486,49.3263,15.3706,1,2,3,1,1,0,0,319.2486,335.9916,1.4374,16.743,20,
116,1,2,2,113,1,47.8205,76.1069,167.9354,3,2,1,2,0,1,0,76.1069,NaN,100000,999,0,
116,1,2,2,114,1,348.0664,286.3547,317.3484,2,1,3,3,0,0,1,317.3484,171.4429,1.0346,-145.9054,0,
116,1,2,2,115,0,77.1119,17.5712,286.6792,0,0,0,1,0,0,0,77.1119,68.7046,1.5624,-8.4073,30,
116,1,2,2,116,0,15.0253,285.8329,109.373,0,0,0,1,0,0,0,15.0253,27.7467,0.90269,12.7214,20,
116,1,2,2,117,0,49.0875,78.6786,165.791,0,0,0,3,0,0,0,165.791,171.1787,0.81949,5.3877,30,
116,1,2,2,118,1,45.8186,137.9201,229.5456,3,2,1,3,1,0,0,229.5456,189.0413,0.993,-40.5043,0,
116,1,2,2,119,1,255.7269,226.5693,165.0033,3,2,1,2,0,1,0,226.5693,NaN,100000,999,0,
116,1,2,2,120,0,165.0577,256.1944,317.3095,0,0,0,1,0,0,0,165.0577,172.4382,1.5972,7.3805,30,
116,1,3,1,121,0,45.3671,17.764,257.0834,0,0,0,2,0,0,0,17.764,36.9524,0.98607,19.1885,20,
116,1,3,1,122,1,16.4573,139.8181,285.0819,3,1,2,3,1,0,0,285.0819,295.0122,0.7776,9.9302,30,
116,1,3,1,123,0,17.9325,109.415,228.9559,0,0,0,1,0,0,0,17.9325,36.016,1.1527,18.0835,20,
116,1,3,1,124,0,288.6023,319.5767,168.6395,0,0,0,3,0,0,0,168.6395,164.4113,0.79158,-4.2282,30,
116,1,3,1,125,1,347.3289,138.8727,108.5212,2,3,1,2,1,0,0,138.8727,147.3608,0.95121,8.4881,30,
116,1,3,1,126,0,105.0866,288.6947,75.2735,0,0,0,3,0,0,0,75.2735,108.9597,0.94436,33.6862,0,
116,1,3,1,127,1,105.8021,286.8138,136.3881,3,1,2,3,1,0,0,136.3881,97.9853,0.73606,-38.4028,0,
116,1,3,1,128,1,105.4642,76.663,288.4675,1,3,2,1,1,0,0,105.4642,93.8125,1.111,-11.6517,30,
116,1,3,1,129,1,317.8528,16.6178,169.7863,3,1,2,3,1,0,0,169.7863,157.6288,0.6805,-12.1575,20,
116,1,3,1,130,1,46.4508,108.429,226.544,2,1,3,3,0,0,1,226.544,240.8915,0.80543,14.3475,20,
116,1,3,1,131,1,195.1918,106.3284,46.511,2,3,1,2,1,0,0,106.3284,102.5213,0.8264,-3.8071,30,
116,1,3,1,132,1,348.7205,136.6838,169.0068,1,2,3,3,0,0,1,169.0068,166.5831,0.98594,-2.4237,40,
116,1,3,1,133,1,347.2198,78.5229,199.909,3,1,2,3,1,0,0,199.909,205.3956,0.71517,5.4865,30,
116,1,3,1,134,1,48.0302,79.2868,15.7845,1,3,2,3,0,1,0,15.7845,12.1312,0.88833,-3.6533,30,
116,1,3,1,135,1,316.9259,229.2826,109.6127,2,1,3,1,0,1,0,316.9259,356.2866,1.1388,39.3607,0,
116,1,3,1,136,0,195.0036,317.7327,17.8215,0,0,0,2,0,0,0,317.7327,334.9305,0.85409,17.1978,20,
116,1,3,1,137,1,19.5432,345.5759,318.7218,3,2,1,1,0,0,1,19.5432,342.3833,1.5346,-37.1599,0,
116,1,3,1,138,0,319.6414,49.4647,107.9935,0,0,0,2,0,0,0,49.4647,30.9948,0.90266,-18.4698,20,
116,1,3,1,139,0,229.6514,108.0118,258.6449,0,0,0,1,0,0,0,229.6514,200.7212,0.9166,-28.9302,10,
116,1,3,1,140,1,76.912,166.0858,259.2257,3,2,1,3,1,0,0,259.2257,233.5944,0.82629,-25.6314,10,
116,1,3,1,141,0,135.0349,15.8694,78.8387,0,0,0,2,0,0,0,15.8694,45.9435,0.68052,30.0741,0,
116,1,3,1,142,0,15.2111,75.7878,196.8068,0,0,0,2,0,0,0,75.7878,67.0109,0.73605,-8.7769,30,
116,1,3,1,143,0,18.0791,108.991,169.1012,0,0,0,3,0,0,0,169.1012,167.4777,1.056,-1.6234,40,
116,1,3,1,144,1,346.1677,76.0985,286.2963,2,3,1,2,1,0,0,76.0985,72.6953,0.61802,-3.4032,30,
116,1,3,1,145,1,199.1113,289.3245,166.6937,3,2,1,1,0,0,1,199.1113,188.6634,1.0554,-10.4479,30,
116,1,3,1,146,1,16.6498,75.4703,229.1588,3,1,2,3,1,0,0,229.1588,236.5611,0.81244,7.4023,30,
116,1,3,1,147,1,168.2834,257.6777,45.7402,2,3,1,2,1,0,0,257.6777,247.8469,0.84722,-9.8308,30,
116,1,3,1,148,1,168.7562,316.9016,46.3313,2,3,1,2,1,0,0,316.9016,344.6351,0.60412,27.7335,10,
116,1,3,1,149,1,286.8301,259.2503,319.7088,3,2,1,3,1,0,0,319.7088,310.386,0.90274,-9.3228,30,
116,1,3,1,150,1,169.813,135.4378,16.2783,1,2,3,1,1,0,0,169.813,171.7622,1.3262,1.9492,40,
116,1,3,1,151,0,108.8506,229.1065,285.5739,0,0,0,1,0,0,0,108.8506,126.8059,0.84019,17.9552,20,
116,1,3,1,152,0,75.7997,227.1086,287.7935,0,0,0,2,0,0,0,227.1086,240.2226,1.3123,13.1141,20,
116,1,3,1,153,1,108.4989,226.1455,288.9949,1,2,3,1,1,0,0,108.4989,148.6986,0.72213,40.1997,0,
116,1,3,1,154,1,229.6674,316.0235,345.2026,3,2,1,1,0,0,1,229.6674,248.5785,1.0069,18.9112,20,
116,1,3,1,155,0,48.8292,318.5057,196.9738,0,0,0,3,0,0,0,196.9738,199.8451,0.79161,2.8713,40,
116,1,3,1,156,0,316.1095,106.1098,287.2353,0,0,0,3,0,0,0,287.2353,300.8173,0.61107,13.582,20,
116,1,3,1,157,1,256.1583,226.0451,318.0494,2,1,3,2,1,0,0,226.0451,226.8361,0.89574,0.791,40,
116,1,3,1,158,1,195.7293,168.5903,16.4374,3,1,2,3,1,0,0,16.4374,24.7752,1.0625,8.3378,30,
116,1,3,1,159,1,168.193,287.4894,229.6082,1,3,2,1,1,0,0,168.193,155.2773,0.63879,-12.9157,20,
116,1,3,1,160,0,47.1054,79.7742,255.9474,0,0,0,3,0,0,0,255.9474,256.1988,0.67356,0.25136,40,
116,1,3,1,161,1,48.0219,169.9816,255.639,2,1,3,2,1,0,0,169.9816,129.6633,1.0346,-40.3183,0,
116,1,3,1,162,0,166.8107,77.7085,105.9141,0,0,0,1,0,0,0,166.8107,176.608,0.79852,9.7973,30,
116,1,3,1,163,0,228.2537,199.3408,316.7389,0,0,0,2,0,0,0,199.3408,187.084,1.0068,-12.2568,20,
116,1,3,1,164,1,79.6755,229.2107,168.899,3,2,1,3,1,0,0,168.899,153.2737,1.0763,-15.6253,20,
116,1,3,1,165,0,347.1626,197.4493,315.0263,0,0,0,2,0,0,0,197.4493,179.5586,0.89576,-17.8906,20,
116,1,3,1,166,1,76.0121,348.7798,19.7216,1,3,2,1,1,0,0,76.0121,114.127,0.70134,38.1149,0,
116,1,3,1,167,0,289.4188,199.8567,48.159,0,0,0,3,0,0,0,48.159,47.0517,0.84716,-1.1073,40,
116,1,3,1,168,0,75.6025,109.1368,18.7314,0,0,0,2,0,0,0,109.1368,145.5895,1.1319,36.4527,0,
116,1,3,1,169,0,287.5456,167.9106,135.2279,0,0,0,2,0,0,0,167.9106,120.0908,0.68746,-47.8197,0,
116,1,3,1,170,0,286.6719,319.2714,75.0754,0,0,0,1,0,0,0,286.6719,305.6771,1.1458,19.0051,20,
116,1,3,1,171,1,77.9545,285.0169,137.4278,1,2,3,2,0,1,0,285.0169,297.0993,1.2152,12.0824,20,
116,1,3,1,172,0,135.095,345.4361,167.0706,0,0,0,1,0,0,0,135.095,141.5456,0.7916,6.4505,30,
116,1,3,1,173,1,166.4906,257.6754,225.8735,3,2,1,2,0,1,0,257.6754,254.0753,1.0068,-3.6001,30,
116,1,3,1,174,1,256.8338,198.2257,48.0853,1,3,2,1,1,0,0,256.8338,240.8654,0.69439,-15.9684,20,
116,1,3,1,175,0,289.4399,49.5661,318.1183,0,0,0,3,0,0,0,318.1183,321.8215,0.95129,3.7032,30,
116,1,3,1,176,0,227.2282,346.9787,169.8509,0,0,0,3,0,0,0,169.8509,170.4031,0.99306,0.5522,40,
116,1,3,1,177,1,77.8421,228.6618,317.0498,3,1,2,3,1,0,0,317.0498,160.4451,0.7916,-156.6047,0,
116,1,3,1,178,1,285.3884,256.3126,136.8142,2,3,1,1,0,0,1,285.3884,270.674,1.9095,-14.7144,20,
116,1,3,1,179,1,79.469,45.2906,346.6152,3,2,1,3,1,0,0,346.6152,332.6297,0.7777,-13.9854,20,
116,1,3,1,180,1,48.3381,288.757,199.864,2,3,1,2,1,0,0,288.757,295.3611,0.97216,6.6041,30,
116,1,4,1,181,1,319.1507,49.1096,286.6385,1,3,2,1,1,0,0,319.1507,315.9959,0.6319,-3.1548,30,
116,1,4,1,182,1,286.759,196.8689,348.5008,2,3,1,1,0,0,1,286.759,301.7608,1.1666,15.0018,20,
116,1,4,1,183,0,107.5925,78.6014,139.557,0,0,0,3,0,0,0,139.557,122.5614,0.99984,-16.9955,20,
116,1,4,1,184,1,137.0836,195.1206,76.0009,1,3,2,1,1,0,0,137.0836,122.358,0.70821,-14.7256,20,
116,1,4,1,185,1,256.5881,78.4429,319.3828,2,1,3,2,1,0,0,78.4429,77.6347,0.69434,-0.80819,40,
116,1,4,1,186,1,19.8328,257.5742,289.7055,1,2,3,1,1,0,0,19.8328,79.5421,0.91658,59.7094,0,
116,1,4,1,187,0,319.9218,76.4011,136.1375,0,0,0,1,0,0,0,319.9218,319.8638,0.9304,-0.058014,40,
116,1,4,1,188,1,139.8512,228.1325,19.258,3,2,1,3,1,0,0,19.258,39.7993,0.68746,20.5414,20,
116,1,4,1,189,0,138.0547,289.0306,255.1701,0,0,0,1,0,0,0,138.0547,137.5523,0.54855,-0.5024,40,
116,1,4,1,190,1,318.4735,135.2007,108.6708,1,2,3,2,0,1,0,135.2007,94.7003,0.97909,-40.5005,0,
116,1,4,1,191,1,285.3241,258.5009,46.5781,3,2,1,2,0,1,0,258.5009,284.4565,2.0277,25.9557,10,
116,1,4,1,192,0,76.3422,47.204,315.4813,0,0,0,1,0,0,0,76.3422,75.2322,0.86106,-1.11,40,
116,1,4,1,193,0,346.8496,19.2383,226.3741,0,0,0,2,0,0,0,19.2383,26.1028,0.79167,6.8645,30,
116,1,4,1,194,0,319.4716,75.7797,286.5528,0,0,0,1,0,0,0,319.4716,265.6518,0.625,-53.8198,0,
116,1,4,1,195,0,289.7864,195.3463,136.0869,0,0,0,1,0,0,0,289.7864,291.4373,1.0137,1.6509,40,
116,1,4,1,196,1,229.6725,109.8643,315.4473,3,2,1,2,0,1,0,109.8643,86.3061,0.61802,-23.5582,10,
116,1,4,1,197,1,135.4925,258.9661,227.8066,2,3,1,3,0,1,0,227.8066,234.2112,0.86795,6.4046,30,
116,1,4,1,198,1,17.2003,78.8124,195.0438,1,2,3,1,1,0,0,17.2003,24.0742,2.2637,6.874,30,
116,1,4,1,199,1,346.0231,47.6184,226.1865,1,3,2,1,1,0,0,346.0231,324.5896,0.68746,-21.4335,10,
116,1,4,1,200,0,196.483,77.1038,346.9809,0,0,0,2,0,0,0,77.1038,64.9878,0.61799,-12.116,20,
116,1,4,1,201,0,346.3624,15.2497,315.8265,0,0,0,1,0,0,0,346.3624,356.2278,0.77074,9.8654,30,
116,1,4,1,202,1,319.4416,49.9606,256.9191,1,3,2,2,0,0,1,49.9606,40.346,0.65281,-9.6146,30,
116,1,4,1,203,1,228.6893,259.3661,316.6298,1,3,2,2,0,0,1,259.3661,57.5829,0.96514,158.2168,0,
116,1,4,1,204,0,167.9542,256.3643,77.3228,0,0,0,1,0,0,0,167.9542,147.3084,0.61107,-20.6458,20,
116,1,4,1,205,0,229.2203,169.5079,318.8984,0,0,0,2,0,0,0,169.5079,200.1042,1.7915,30.5964,0,
116,1,4,1,206,0,106.0757,197.289,287.5851,0,0,0,1,0,0,0,106.0757,123.2801,0.88188,17.2044,20,
116,1,4,1,207,0,107.2912,166.3153,255.921,0,0,0,3,0,0,0,255.921,254.8984,1.118,-1.0225,40,
116,1,4,1,208,1,319.5876,289.7294,46.7167,1,3,2,1,1,0,0,319.5876,314.4806,0.93048,-5.107,30,
116,1,4,1,209,0,106.5336,227.3643,318.2923,0,0,0,3,0,0,0,318.2923,317.5982,0.7708,-0.69415,40,
116,1,4,1,210,0,76.9959,256.2549,109.9814,0,0,0,1,0,0,0,76.9959,83.2225,1.3193,6.2266,30,
116,1,4,1,211,0,197.7999,227.8285,137.9923,0,0,0,2,0,0,0,227.8285,220.3666,0.83329,-7.4619,30,
116,1,4,1,212,0,199.1692,255.3979,227.0045,0,0,0,1,0,0,0,199.1692,211.9572,0.6805,12.788,20,
116,1,4,1,213,0,228.6097,315.139,346.3304,0,0,0,2,0,0,0,315.139,339.8048,0.97909,24.6658,10,
116,1,4,1,214,0,48.6644,199.7895,225.6489,0,0,0,1,0,0,0,48.6644,45.1787,1.9027,-3.4857,30,
116,1,4,1,215,1,196.5867,229.1823,169.0975,2,3,1,1,0,0,1,196.5867,228.5316,0.84721,31.945,0,
116,1,4,1,216,1,77.4603,166.4598,318.313,2,1,3,2,1,0,0,166.4598,202.3679,1.6805,35.9081,0,
116,1,4,1,217,1,18.9262,348.3209,108.6558,1,2,3,1,1,0,0,18.9262,56.0839,1.6526,37.1577,0,
116,1,4,1,218,1,259.9226,318.5131,18.7247,3,1,2,3,1,0,0,18.7247,26.705,0.8679,7.9803,30,
116,1,4,1,219,1,229.3481,77.0349,255.4741,1,3,2,2,0,0,1,77.0349,69.182,1.2984,-7.8529,30,
116,1,4,1,220,1,19.736,317.1793,226.306,3,2,1,3,1,0,0,226.306,244.501,0.77814,18.1949,20,
116,1,4,1,221,0,199.1682,228.0939,45.8544,0,0,0,2,0,0,0,228.0939,209.3186,1.4785,-18.7753,20,
116,1,4,1,222,1,76.9181,16.5354,107.062,2,1,3,2,1,0,0,16.5354,26.2248,0.66662,9.6894,30,
116,1,4,1,223,1,49.0839,198.551,348.483,2,1,3,3,0,0,1,348.483,355.0791,2.6594,6.5962,30,
116,1,4,1,224,0,109.0532,49.498,289.4304,0,0,0,1,0,0,0,109.0532,38.8732,1.2707,-70.1799,0,
116,1,4,1,225,0,15.3977,108.3505,287.6242,0,0,0,2,0,0,0,108.3505,98.5592,0.88186,-9.7914,30,
116,1,4,1,226,1,76.2829,316.1748,346.7998,1,2,3,1,1,0,0,76.2829,71.41,0.75688,-4.8729,30,
116,1,4,1,227,0,347.8015,136.9414,196.5129,0,0,0,3,0,0,0,196.5129,162.4866,1.2152,-34.0262,0,
116,1,4,1,228,0,287.5805,198.4848,257.2128,0,0,0,3,0,0,0,257.2128,246.7729,0.70136,-10.4399,30,
116,1,4,1,229,1,76.7487,169.6823,18.6224,3,2,1,3,1,0,0,18.6224,26.0159,0.95823,7.3935,30,
116,1,4,1,230,1,169.99,197.089,228.8288,2,1,3,3,0,0,1,228.8288,241.9213,0.84714,13.0925,20,
116,1,4,1,231,1,76.0219,167.5687,197.3586,3,2,1,3,1,0,0,197.3586,215.8069,0.93745,18.4483,20,
116,1,4,1,232,0,107.9681,315.8429,348.3127,0,0,0,1,0,0,0,107.9681,121.6283,0.67349,13.6603,20,
116,1,4,1,233,1,345.8325,48.971,285.3122,2,3,1,2,1,0,0,48.971,71.1849,1.2429,22.2139,10,
116,1,4,1,234,1,286.8011,77.2218,317.1573,2,1,3,2,1,0,0,77.2218,69.8336,0.59025,-7.3882,30,
116,1,4,1,235,1,18.2231,169.175,255.2369,1,2,3,1,1,0,0,18.2231,17.6866,1.7219,-0.53649,40,
116,1,4,1,236,0,109.1052,139.1284,346.2755,0,0,0,3,0,0,0,346.2755,288.8202,1.1389,-57.4552,0,
116,1,4,1,237,1,319.9823,228.0589,345.0925,2,3,1,3,0,1,0,345.0925,323.269,0.72213,-21.8235,10,
116,1,4,1,238,0,48.3632,226.9539,105.1998,0,0,0,1,0,0,0,48.3632,88.1636,1.4652,39.8005,0,
116,1,4,1,239,1,259.684,109.4295,19.1805,1,2,3,1,1,0,0,259.684,251.6877,0.55589,-7.9962,30,
116,1,4,1,240,1,318.0886,255.7351,105.5371,1,2,3,1,1,0,0,318.0886,325.9402,1.1249,7.8515,30,
116,1,5,1,241,0,135.6957,108.9836,285.6645,0,0,0,1,0,0,0,135.6957,121.1039,0.97911,-14.5918,20,
116,1,5,1,242,0,289.6205,137.0813,16.6098,0,0,0,1,0,0,0,289.6205,287.3156,1.0623,-2.305,40,
116,1,5,1,243,1,105.6849,17.165,349.2011,2,1,3,1,0,1,0,105.6849,124.8401,0.47918,19.1552,20,
116,1,5,1,244,0,287.1638,105.1022,225.7924,0,0,0,2,0,0,0,105.1022,91.1768,0.84017,-13.9255,20,
116,1,5,1,245,0,227.3488,287.3207,78.052,0,0,0,1,0,0,0,227.3488,236.7273,0.56942,9.3785,30,
116,1,5,1,246,1,288.4321,228.223,105.5927,1,3,2,1,1,0,0,288.4321,224.0317,0.7152,-64.4004,0,
116,1,5,1,247,0,167.1625,196.0863,78.5938,0,0,0,2,0,0,0,196.0863,123.5396,0.9097,-72.5467,0,
116,1,5,1,248,1,168.065,348.5242,139.2691,1,3,2,1,1,0,0,168.065,180,0.56945,11.935,30,
116,1,5,1,249,0,166.3544,106.2473,199.6774,0,0,0,2,0,0,0,106.2473,196.1273,0.868,89.8799,0,
116,1,5,1,250,1,19.7248,199.2446,45.5075,3,1,2,1,0,1,0,19.7248,24.8719,1.7221,5.1471,30,
116,1,5,1,251,1,108.1943,46.5797,165.3894,2,3,1,2,1,0,0,46.5797,71.8122,0.986,25.2324,10,
116,1,5,1,252,1,18.7609,197.4369,107.1016,3,2,1,1,0,0,1,18.7609,48.6396,1.2428,29.8787,10,
116,1,5,1,253,1,228.1132,318.3164,348.2657,2,1,3,2,1,0,0,318.3164,319.5758,1.5831,1.2594,40,
116,1,5,1,254,0,76.4339,347.459,197.7996,0,0,0,1,0,0,0,76.4339,69.8224,1.0694,-6.6114,30,
116,1,5,1,255,0,107.0625,165.9279,75.1195,0,0,0,3,0,0,0,75.1195,91.0784,0.94435,15.9589,20,
116,1,5,1,256,1,258.1489,289.1489,346.2885,1,3,2,2,0,0,1,289.1489,319.0445,1.0348,29.8956,10,
116,1,5,1,257,1,316.9612,139.4658,348.3172,1,3,2,1,1,0,0,316.9612,342.2361,1.8331,25.2749,10,
116,1,5,1,258,1,228.6563,79.5999,137.4769,3,1,2,3,1,0,0,137.4769,122.3232,1.2221,-15.1537,20,
116,1,5,1,259,0,79.0563,318.7934,17.1159,0,0,0,2,0,0,0,318.7934,312.1961,0.83321,-6.5974,30,
116,1,5,1,260,1,106.2942,137.8854,167.3378,1,2,3,1,1,0,0,106.2942,125.1739,0.53473,18.8797,20,
116,1,5,1,261,0,288.4504,47.585,345.9817,0,0,0,2,0,0,0,47.585,59.1637,1.4165,11.5787,30,
116,1,5,1,262,1,228.8305,49.5527,167.3951,1,2,3,3,0,0,1,167.3951,145.1785,0.84716,-22.2166,10,
116,1,5,1,263,1,195.887,46.9796,287.4608,2,1,3,2,1,0,0,46.9796,60.4945,1.25,13.5148,20,
116,1,5,1,264,0,259.2475,78.2639,347.5938,0,0,0,2,0,0,0,78.2639,69.7514,1.0694,-8.5125,30,
116,1,5,1,265,0,109.2478,46.192,195.5791,0,0,0,2,0,0,0,46.192,69.2141,0.90275,23.0221,10,
116,1,5,1,266,1,108.0933,49.9801,345.0676,2,3,1,2,1,0,0,49.9801,50.914,0.82629,0.93391,40,
116,1,5,1,267,1,285.1394,109.4368,229.5828,1,2,3,2,0,1,0,109.4368,65.6551,0.72216,-43.7816,0,
116,1,5,1,268,1,166.8407,345.8715,48.8406,2,3,1,2,1,0,0,345.8715,30.5202,1.0555,44.6487,0,
116,1,5,1,269,1,349.8504,167.6536,46.7037,2,3,1,2,1,0,0,167.6536,334.0379,0.88178,166.3843,0,
116,1,5,1,270,1,165.1437,316.794,199.3211,1,3,2,2,0,0,1,316.794,339.93,0.90961,23.1359,10,
116,1,5,1,271,0,106.2118,345.9783,138.4999,0,0,0,2,0,0,0,345.9783,324.9487,0.88187,-21.0296,10,
116,1,5,1,272,1,288.4404,49.9428,135.3017,3,1,2,3,1,0,0,135.3017,149.3598,1.0068,14.0581,20,
116,1,5,1,273,1,347.8252,107.7252,79.8696,1,3,2,1,1,0,0,347.8252,312.1217,0.81945,-35.7035,0,
116,1,5,1,274,1,287.0698,139.6229,17.282,3,1,2,2,0,0,1,139.6229,120.6551,1.5762,-18.9678,20,
116,1,5,1,275,1,345.8267,49.9573,285.3367,3,1,2,3,1,0,0,285.3367,286.0376,0.63184,0.70094,40,
116,1,5,1,276,1,346.9718,109.405,316.4648,2,1,3,1,0,1,0,346.9718,358.9563,1.0625,11.9845,30,
116,1,5,1,277,0,319.7698,285.3432,136.7088,0,0,0,3,0,0,0,136.7088,128.5825,1.0624,-8.1263,30,
116,1,5,1,278,0,16.5731,165.8092,255.2115,0,0,0,3,0,0,0,255.2115,248.4123,0.84719,-6.7992,30,
116,1,5,1,279,1,166.3119,135.2038,288.2441,2,3,1,2,1,0,0,135.2038,127.8694,1.3193,-7.3344,30,
116,1,5,1,280,1,78.2531,198.1727,136.4908,2,1,3,2,1,0,0,198.1727,161.8592,0.72911,-36.3135,0,
116,1,5,1,281,1,318.8216,346.4861,167.4867,3,1,2,3,1,0,0,167.4867,169.0229,0.99297,1.5362,40,
116,1,5,1,282,0,346.244,108.5655,138.6674,0,0,0,1,0,0,0,346.244,352.9117,1.0346,6.6678,30,
116,1,5,1,283,1,75.4637,285.1052,227.6462,3,1,2,1,0,1,0,75.4637,66.2325,0.9652,-9.2313,30,
116,1,5,1,284,0,198.0859,19.0835,138.0043,0,0,0,3,0,0,0,138.0043,107.2519,0.74303,-30.7524,0,
116,1,5,1,285,1,15.477,49.9249,257.1158,2,1,3,2,1,0,0,49.9249,41.9667,0.86793,-7.9582,30,
116,1,5,1,286,0,255.1046,287.9587,165.198,0,0,0,3,0,0,0,165.198,167.2902,0.82638,2.0922,40,
116,1,5,1,287,0,79.3242,349.8035,19.5499,0,0,0,3,0,0,0,19.5499,359.2306,0.82578,-20.3192,20,
116,1,5,1,288,1,196.9551,285.5794,46.5419,3,2,1,3,1,0,0,46.5419,57.9852,0.68056,11.4434,30,
116,1,5,1,289,0,17.8394,139.1235,229.8291,0,0,0,2,0,0,0,139.1235,127.5051,0.93045,-11.6184,30,
116,1,5,1,290,0,105.1774,16.1086,49.0408,0,0,0,2,0,0,0,16.1086,35.641,0.81233,19.5324,20,
116,1,5,1,291,1,135.911,347.063,255.8389,3,1,2,1,0,1,0,135.911,150.3968,0.84018,14.4858,20,
116,1,5,1,292,1,347.4942,105.9765,319.8191,1,2,3,3,0,0,1,319.8191,324.4689,0.74294,4.6498,30,
116,1,5,1,293,1,227.5388,76.9713,316.9141,3,1,2,3,1,0,0,316.9141,322.2773,0.65964,5.3633,30,
116,1,5,1,294,0,227.1475,258.4805,196.0925,0,0,0,2,0,0,0,258.4805,215.6276,1.7434,-42.8529,0,
116,1,5,1,295,1,287.6638,17.7888,198.4672,2,3,1,2,1,0,0,17.7888,27.2236,1.3957,9.4348,30,
116,1,5,1,296,0,347.5182,45.635,286.5259,0,0,0,3,0,0,0,286.5259,301.0667,0.56936,14.5408,20,
116,1,5,1,297,1,47.4659,349.1507,229.5924,2,1,3,1,0,1,0,47.4659,52.3915,1.3263,4.9256,30,
116,1,5,1,298,0,108.3954,138.5708,195.688,0,0,0,3,0,0,0,195.688,212.3976,0.91656,16.7096,20,
116,1,5,1,299,1,16.6666,197.275,45.042,2,3,1,2,1,0,0,197.275,192.6238,2.1943,-4.6512,30,
116,1,5,1,300,1,168.6076,228.1828,49.729,1,2,3,1,1,0,0,168.6076,164.1387,0.76383,-4.4689,30,
116,1,6,1,301,1,349.276,289.6534,318.8978,1,2,3,1,1,0,0,349.276,352.1913,1.0346,2.9152,40,
116,1,6,1,302,1,169.7503,18.0276,79.0528,1,2,3,3,0,0,1,79.0528,116.8595,1.0347,37.8066,0,
116,1,6,1,303,1,348.8026,255.6956,48.0353,1,3,2,1,1,0,0,348.8026,343.935,0.98601,-4.8676,30,
116,1,6,1,304,1,79.2567,136.2341,317.157,2,3,1,3,0,1,0,317.157,328.9359,0.59716,11.7789,30,
116,1,6,1,305,1,138.6301,77.9276,289.761,1,3,2,1,1,0,0,138.6301,136.9064,0.87493,-1.7237,40,
116,1,6,1,306,0,167.9562,257.4806,347.4647,0,0,0,1,0,0,0,167.9562,150.3791,0.67352,-17.5771,20,
116,1,6,1,307,1,76.1141,315.1313,285.9054,1,3,2,1,1,0,0,76.1141,157.1603,0.71523,81.0462,0,
116,1,6,1,308,1,315.4429,108.7977,345.3481,3,1,2,3,1,0,0,345.3481,316.5959,0.96519,-28.7523,10,
116,1,6,1,309,1,319.3995,196.8921,289.1325,1,3,2,3,0,1,0,289.1325,315.9857,0.95823,26.8532,10,
116,1,6,1,310,1,258.4335,226.7967,286.5474,2,3,1,2,1,0,0,226.7967,229.0115,1.3194,2.2148,40,
116,1,6,1,311,1,17.3162,77.2873,167.9481,3,2,1,3,1,0,0,167.9481,119.5778,0.61106,-48.3704,0,
116,1,6,1,312,1,195.4627,287.4819,106.1432,3,1,2,3,1,0,0,106.1432,148.9637,0.84028,42.8205,0,
116,1,6,1,313,1,76.5699,17.8829,345.6083,2,1,3,2,1,0,0,17.8829,21.5523,1.1111,3.6694,30,
116,1,6,1,314,0,138.0818,79.8007,45.1939,0,0,0,1,0,0,0,138.0818,128.4641,0.78466,-9.6178,30,
116,1,6,1,315,1,48.7453,288.6061,17.6153,3,2,1,3,1,0,0,17.6153,19.8774,0.86796,2.2621,40,
116,1,6,1,316,1,76.7276,135.3013,47.2202,3,1,2,1,0,1,0,76.7276,84.4959,0.96518,7.7683,30,
116,1,6,1,317,1,135.7664,18.2568,105.8025,2,1,3,2,1,0,0,18.2568,17.2062,1.0207,-1.0506,40,
116,1,6,1,318,0,46.8303,76.5296,108.0191,0,0,0,3,0,0,0,108.0191,93.1348,0.84022,-14.8843,20,
116,1,6,1,319,0,289.7642,46.6762,258.468,0,0,0,3,0,0,0,258.468,301.0209,1.6665,42.553,0,
116,1,6,1,320,1,347.7297,168.1533,256.9656,1,2,3,1,1,0,0,347.7297,6.3983,1.2151,18.6686,20,
116,1,6,1,321,0,197.2314,258.9811,49.0688,0,0,0,3,0,0,0,49.0688,57.4832,0.8541,8.4143,30,
116,1,6,1,322,0,166.4604,195.4281,108.228,0,0,0,1,0,0,0,166.4604,157.4989,0.63881,-8.9615,30,
116,1,6,1,323,0,228.4831,319.3725,47.8385,0,0,0,1,0,0,0,228.4831,221.063,1.1873,-7.4202,30,
116,1,6,1,324,0,348.7871,45.0393,106.3275,0,0,0,3,0,0,0,106.3275,101.9697,0.93742,-4.3577,30,
116,1,6,1,325,1,45.5714,107.1663,76.4239,3,1,2,2,0,0,1,107.1663,108.8422,0.93745,1.6759,40,
116,1,6,1,326,1,49.5589,349.7847,196.7966,3,2,1,3,1,0,0,196.7966,211.5192,0.94436,14.7226,20,
116,1,6,1,327,1,348.8138,168.6138,199.2722,2,1,3,2,1,0,0,168.6138,189.8614,0.91657,21.2477,10,
116,1,6,1,328,0,78.2539,199.2359,106.7295,0,0,0,3,0,0,0,106.7295,181.1721,0.61099,74.4426,0,
116,1,6,1,329,1,76.845,47.1161,17.8572,1,3,2,1,1,0,0,76.845,85.6112,0.93046,8.7662,30,
116,1,6,1,330,1,256.9032,46.848,228.7657,2,1,3,1,0,1,0,256.9032,236.4812,0.73602,-20.422,20,
116,1,6,1,331,0,315.9509,345.0095,49.2889,0,0,0,3,0,0,0,49.2889,77.1646,1.409,27.8758,10,
116,1,6,1,332,1,49.7089,18.4318,196.6558,3,2,1,2,0,1,0,18.4318,43.4277,0.8055,24.9959,10,
116,1,6,1,333,1,108.3529,316.4577,256.6174,2,1,3,2,1,0,0,316.4577,325.1927,0.6875,8.735,30,
116,1,6,1,334,1,348.0766,49.1223,287.0703,1,2,3,1,1,0,0,348.0766,3.3015,1.5553,15.2249,20,
116,1,6,1,335,0,317.7201,255.9044,346.3804,0,0,0,2,0,0,0,255.9044,335.0437,1.0069,79.1393,0,
116,1,6,1,336,0,135.7551,227.0511,289.4652,0,0,0,3,0,0,0,289.4652,296.5546,1.0416,7.0894,30,
116,1,6,1,337,1,108.0557,258.5258,345.1416,3,2,1,3,1,0,0,345.1416,321.8739,0.80549,-23.2677,10,
116,1,6,1,338,0,349.3055,317.223,286.933,0,0,0,1,0,0,0,349.3055,337.4888,2.2498,-11.8167,30,
116,1,6,1,339,1,289.2184,139.4593,48.4279,2,1,3,2,1,0,0,139.4593,113.1822,0.95833,-26.2771,10,
116,1,6,1,340,1,107.1287,259.3308,167.4032,3,1,2,3,1,0,0,167.4032,175.1008,0.9513,7.6976,30,
116,1,6,1,341,0,259.2239,106.175,47.5414,0,0,0,2,0,0,0,106.175,114.6958,0.72218,8.5208,30,
116,1,6,1,342,0,286.65,258.7524,48.9783,0,0,0,3,0,0,0,48.9783,66.3629,0.89576,17.3847,20,
116,1,6,1,343,0,46.7631,288.5474,17.9435,0,0,0,3,0,0,0,17.9435,33.2131,0.94436,15.2697,20,
116,1,6,1,344,1,136.7238,19.2851,166.4328,2,1,3,2,1,0,0,19.2851,30.0963,0.8124,10.8112,30,
116,1,6,1,345,1,169.0589,257.2943,108.3798,1,3,2,3,0,1,0,108.3798,120.2104,0.89575,11.8306,30,
116,1,6,1,346,1,255.9856,166.1645,286.676,3,1,2,2,0,0,1,166.1645,185.8881,1.4999,19.7237,20,
116,1,6,1,347,1,319.7687,198.8048,165.2789,2,3,1,2,1,0,0,198.8048,181.6196,0.81947,-17.1852,20,
116,1,6,1,348,1,109.3766,17.0994,229.6522,3,1,2,3,1,0,0,229.6522,234.2052,0.62504,4.553,30,
116,1,6,1,349,0,199.938,258.8847,318.5844,0,0,0,1,0,0,0,199.938,198.8995,0.90913,-1.0385,40,
116,1,6,1,350,1,347.053,318.8349,48.9335,1,2,3,3,0,0,1,48.9335,39.0636,0.93042,-9.8699,30,
116,1,6,1,351,1,195.9885,47.393,79.4445,3,2,1,1,0,0,1,195.9885,192.3145,0.68749,-3.674,30,
116,1,6,1,352,1,167.5783,45.0642,79.143,2,3,1,3,0,1,0,79.143,82.9613,0.73606,3.8183,30,
116,1,6,1,353,1,258.7937,135.4168,197.5637,1,2,3,1,1,0,0,258.7937,212.7358,0.73602,-46.0579,0,
116,1,6,1,354,0,135.6245,75.2559,258.1976,0,0,0,1,0,0,0,135.6245,152.4002,0.85406,16.7757,20,
116,1,6,1,355,1,18.7479,107.9057,169.7624,2,3,1,2,1,0,0,107.9057,106.9348,0.88885,-0.97094,40,
116,1,6,1,356,0,318.0068,49.3424,199.0784,0,0,0,2,0,0,0,49.3424,95.0271,0.70815,45.6846,0,
116,1,6,1,357,1,347.3046,136.755,108.0261,3,2,1,3,1,0,0,108.0261,104.31,0.79852,-3.7161,30,
116,1,6,1,358,1,137.5036,257.6435,105.0708,3,2,1,3,1,0,0,105.0708,109.5375,0.91663,4.4667,30,
116,1,6,1,359,0,15.3835,46.5001,105.5262,0,0,0,2,0,0,0,46.5001,46.6116,0.88878,0.11158,40,
116,1,6,1,360,1,137.304,167.061,199.7356,1,2,3,2,0,1,0,167.061,97.5028,0.69443,-69.5582,0,
116,1,7,2,361,1,198.5388,255.7908,109.8841,1,2,3,3,0,0,1,109.8841,125.5295,0.74937,15.6454,20,
116,1,7,2,362,1,228.3049,318.7755,107.5883,3,2,1,3,1,0,0,107.5883,108.3912,0.79153,0.80292,40,
116,1,7,2,363,1,227.5244,48.3865,319.0119,1,2,3,1,1,0,0,227.5244,208.7882,1.0069,-18.7362,20,
116,1,7,2,364,1,47.8729,198.636,229.3965,3,1,2,1,0,1,0,47.8729,NaN,100000,999,0,
116,1,7,2,365,0,226.3707,75.4554,168.3297,0,0,0,2,0,0,0,75.4554,64.6593,1.2152,-10.7962,30,
116,1,7,2,366,1,255.7149,196.3639,49.8544,3,1,2,3,1,0,0,49.8544,65.9357,0.70131,16.0813,20,
116,1,7,2,367,1,225.4717,199.0995,316.8737,3,2,1,3,1,0,0,316.8737,320.8019,0.63882,3.9283,30,
116,1,7,2,368,0,165.0584,108.9805,255.9107,0,0,0,1,0,0,0,165.0584,167.6814,1.1456,2.623,40,
116,1,7,2,369,1,18.1968,49.1557,318.5436,3,1,2,3,1,0,0,318.5436,330.4836,0.63192,11.94,30,
116,1,7,2,370,0,15.8828,135.3205,228.4285,0,0,0,2,0,0,0,135.3205,39.714,0.95825,-95.6065,0,
116,1,7,2,371,1,227.3627,15.6079,166.3986,1,2,3,1,1,0,0,227.3627,215.8338,0.98599,-11.5289,30,
116,1,7,2,372,0,75.834,287.2981,199.5892,0,0,0,3,0,0,0,199.5892,152.8553,0.9999,-46.7339,0,
116,1,7,2,373,1,165.477,288.9474,18.5358,1,2,3,3,0,0,1,18.5358,30.6745,0.72216,12.1387,20,
116,1,7,2,374,0,229.7738,195.9716,257.3334,0,0,0,2,0,0,0,195.9716,171.8837,1.3054,-24.0878,10,
116,1,7,2,375,0,197.6767,107.8332,75.5793,0,0,0,1,0,0,0,197.6767,205.8029,0.62445,8.1262,30,
116,1,7,2,376,0,199.0995,107.7721,288.9407,0,0,0,3,0,0,0,288.9407,311.7794,0.72912,22.8387,10,
116,1,7,2,377,1,167.3544,108.1335,136.0414,2,3,1,1,0,0,1,167.3544,165.2371,0.75,-2.1173,40,
116,1,7,2,378,1,136.2911,47.1604,165.1779,2,1,3,2,1,0,0,47.1604,40.6357,0.993,-6.5247,30,
116,1,7,2,379,1,167.2274,15.1121,78.8827,1,2,3,1,1,0,0,167.2274,153.6394,0.86806,-13.588,20,
116,1,7,2,380,0,347.0676,316.6174,256.7231,0,0,0,3,0,0,0,256.7231,292.4079,0.88873,35.6849,0,
116,1,7,2,381,1,139.2648,79.7287,225.5912,1,2,3,1,1,0,0,139.2648,149.9136,0.59026,10.6488,30,
116,1,7,2,382,1,46.9562,17.8105,349.7842,2,3,1,3,0,1,0,349.7842,NaN,100000,999,0,
116,1,7,2,383,1,349.3938,16.6495,45.9701,2,3,1,2,1,0,0,16.6495,12.0571,0.74299,-4.5925,30,
116,1,7,2,384,0,345.4379,106.2488,16.3081,0,0,0,1,0,0,0,345.4379,332.0353,1.0485,-13.4026,20,
116,1,7,2,385,1,166.3045,197.6022,15.1703,3,2,1,2,0,1,0,197.6022,NaN,100000,999,0,
116,1,7,2,386,1,196.0469,228.681,257.0305,1,3,2,1,1,0,0,196.0469,197.2195,0.72216,1.1726,40,
116,1,7,2,387,1,319.7509,288.9214,105.3713,3,1,2,3,1,0,0,105.3713,122.5158,0.83327,17.1445,20,
116,1,7,2,388,0,135.5174,286.1066,229.2508,0,0,0,3,0,0,0,229.2508,216.0658,0.90262,-13.185,20,
116,1,7,2,389,1,195.4797,48.2247,257.4806,2,3,1,2,1,0,0,48.2247,52.32,0.90962,4.0952,30,
116,1,7,2,390,1,319.877,258.4904,166.2298,1,2,3,1,1,0,0,319.877,332.3144,1.3818,12.4373,20,
116,1,7,2,391,0,196.8362,165.0846,46.1772,0,0,0,2,0,0,0,165.0846,173.9632,1.2221,8.8786,30,
116,1,7,2,392,0,78.4084,45.9453,197.3613,0,0,0,3,0,0,0,197.3613,194.8208,1.0485,-2.5405,40,
116,1,7,2,393,1,348.2589,259.4634,197.2511,1,3,2,1,1,0,0,348.2589,330.5894,1.3055,-17.6696,20,
116,1,7,2,394,0,287.5291,227.399,348.5527,0,0,0,3,0,0,0,348.5527,328.6953,0.95188,-19.8574,20,
116,1,7,2,395,1,347.9773,318.0348,108.2215,2,3,1,2,1,0,0,318.0348,345.36,0.88882,27.3252,10,
116,1,7,2,396,1,48.7538,19.8263,169.3337,3,2,1,2,0,1,0,19.8263,NaN,100000,999,0,
116,1,7,2,397,1,345.4162,45.9876,199.484,1,2,3,1,1,0,0,345.4162,351.4697,1.5484,6.0535,30,
116,1,7,2,398,0,77.6311,257.6825,318.5624,0,0,0,2,0,0,0,257.6825,245.8646,2.59,-11.8179,30,
116,1,7,2,399,1,106.4033,169.3439,319.0106,2,3,1,1,0,0,1,106.4033,97.8855,0.86798,-8.5178,30,
116,1,7,2,400,1,166.8531,318.2446,137.8389,3,2,1,3,1,0,0,137.8389,129.8383,1.0207,-8.0006,30,
116,1,7,2,401,1,109.0131,46.8789,195.2394,2,1,3,2,1,0,0,46.8789,61.7884,0.92348,14.9095,20,
116,1,7,2,402,1,289.222,165.6705,19.4065,3,2,1,1,0,0,1,289.222,291.1125,1.1666,1.8904,40,
116,1,7,2,403,1,165.0021,15.0146,79.6285,3,2,1,3,1,0,0,79.6285,103.257,0.79162,23.6285,10,
116,1,7,2,404,1,17.9009,107.4646,77.7947,1,3,2,2,0,0,1,107.4646,107.0078,1.291,-0.4568,40,
116,1,7,2,405,1,289.1558,77.0112,137.5159,2,1,3,2,1,0,0,77.0112,95.0862,0.64576,18.075,20,
116,1,7,2,406,1,256.7734,346.949,137.9254,3,1,2,3,1,0,0,137.9254,185.712,0.82632,47.7866,0,
116,1,7,2,407,0,347.2501,138.4776,48.5297,0,0,0,2,0,0,0,138.4776,89.2611,1.3818,-49.2166,0,
116,1,7,2,408,0,48.7984,137.736,168.8891,0,0,0,1,0,0,0,48.7984,57.7329,1.0069,8.9345,30,
116,1,7,2,409,0,347.1964,77.6894,255.2459,0,0,0,2,0,0,0,77.6894,81.203,0.56939,3.5136,30,
116,1,7,2,410,1,319.2934,289.4537,75.7854,2,1,3,1,0,1,0,319.2934,NaN,100000,999,0,
116,1,7,2,411,0,346.4156,258.1117,285.5164,0,0,0,3,0,0,0,285.5164,249.0525,0.91652,-36.4639,0,
116,1,7,2,412,0,349.3846,168.8403,78.4254,0,0,0,2,0,0,0,168.8403,344.2727,1.0277,175.4323,0,
116,1,7,2,413,1,76.3235,259.4508,225.252,1,2,3,2,0,1,0,259.4508,NaN,100000,999,0,
116,1,7,2,414,0,318.9071,109.8242,346.1235,0,0,0,3,0,0,0,346.1235,158.718,1.8471,172.5945,0,
116,1,7,2,415,1,345.0028,199.5211,75.7941,1,2,3,3,0,0,1,75.7941,84.2445,0.8124,8.4505,30,
116,1,7,2,416,0,347.0965,108.2064,225.63,0,0,0,2,0,0,0,108.2064,72.5233,0.74994,-35.6831,0,
116,1,7,2,417,1,256.8705,108.5109,15.9167,2,1,3,2,1,0,0,108.5109,118.8393,0.65968,10.3284,30,
116,1,7,2,418,1,106.3591,228.5253,48.3932,2,3,1,2,1,0,0,228.5253,223.9859,0.9305,-4.5394,30,
116,1,7,2,419,1,76.4711,285.5173,255.1054,3,1,2,1,0,1,0,76.4711,NaN,100000,999,0,
116,1,7,2,420,1,78.9722,196.8961,319.4619,3,2,1,3,1,0,0,319.4619,259.3199,1.0763,-60.142,0,
116,1,8,2,421,1,346.1694,138.926,199.3548,1,2,3,2,0,1,0,138.926,NaN,100000,999,0,
116,1,8,2,422,1,108.9719,316.758,286.6712,2,1,3,2,1,0,0,316.758,334.9816,1.069,18.2236,20,
116,1,8,2,423,0,288.9241,345.9003,316.63,0,0,0,2,0,0,0,345.9003,324.2095,0.89572,-21.6908,10,
116,1,8,2,424,1,167.0112,318.2278,48.0535,3,2,1,3,1,0,0,48.0535,43.0232,0.86112,-5.0303,30,
116,1,8,2,425,1,19.1508,107.275,197.0279,3,1,2,1,0,1,0,19.1508,NaN,100000,999,0,
116,1,8,2,426,0,317.7142,287.6453,198.7701,0,0,0,2,0,0,0,287.6453,314.9278,0.90272,27.2824,10,
116,1,8,2,427,1,166.6075,345.8089,138.7094,3,1,2,3,1,0,0,138.7094,162.7509,0.76382,24.0416,10,
116,1,8,2,428,1,257.4661,166.7634,108.0595,1,3,2,2,0,0,1,166.7634,151.7868,0.90286,-14.9766,20,
116,1,8,2,429,0,46.7664,105.9197,317.8253,0,0,0,3,0,0,0,317.8253,338.8391,1.0484,21.0138,10,
116,1,8,2,430,0,316.2826,226.5869,345.6649,0,0,0,2,0,0,0,226.5869,185.7312,0.69441,-40.8558,0,
116,1,8,2,431,0,318.8858,136.2459,197.6585,0,0,0,2,0,0,0,136.2459,138.6121,0.69442,2.3662,40,
116,1,8,2,432,0,196.5339,168.3692,15.2808,0,0,0,1,0,0,0,196.5339,204.2284,1.3402,7.6945,30,
116,1,8,2,433,1,255.8013,286.1659,15.8192,1,2,3,1,1,0,0,255.8013,229.3896,0.79854,-26.4117,10,
116,1,8,2,434,1,49.8423,256.4504,195.0787,2,1,3,2,1,0,0,256.4504,66.2991,2.6178,169.8487,0,
116,1,8,2,435,0,168.1037,255.826,346.6466,0,0,0,1,0,0,0,168.1037,179.147,2.0485,11.0433,30,
116,1,8,2,436,1,167.0257,319.4432,17.8753,3,1,2,1,0,1,0,167.0257,NaN,100000,999,0,
116,1,8,2,437,0,18.741,228.124,108.6405,0,0,0,2,0,0,0,228.124,53.2742,0.9027,-174.8497,0,
116,1,8,2,438,0,317.32,168.8455,256.6747,0,0,0,2,0,0,0,168.8455,55.4586,0.94433,-113.3869,0,
116,1,8,2,439,0,255.6531,106.225,19.3318,0,0,0,1,0,0,0,255.6531,204.8282,0.89577,-50.8249,0,
116,1,8,2,440,1,259.9968,49.8928,18.8239,1,3,2,1,1,0,0,259.9968,239.4187,0.83331,-20.5782,20,
116,1,8,2,441,1,225.2548,346.4091,15.6676,2,3,1,3,0,1,0,15.6676,NaN,100000,999,0,
116,1,8,2,442,0,106.3592,135.8795,348.878,0,0,0,1,0,0,0,106.3592,115.1004,0.92988,8.7412,30,
116,1,8,2,443,0,17.0797,198.9739,349.3836,0,0,0,3,0,0,0,349.3836,334.1866,0.97907,-15.1971,20,
116,1,8,2,444,1,229.0337,77.2781,107.936,3,1,2,3,1,0,0,107.936,338.4911,0.74994,-129.445,0,
116,1,8,2,445,1,345.4404,139.5373,196.9928,3,2,1,1,0,0,1,345.4404,340.4508,1.2222,-4.9896,30,
116,1,8,2,446,1,16.3998,288.0065,256.3468,3,1,2,3,1,0,0,256.3468,165.1366,0.98603,-91.2103,0,
116,1,8,2,447,0,257.2917,136.6432,169.9564,0,0,0,1,0,0,0,257.2917,225.3064,0.53471,-31.9853,0,
116,1,8,2,448,0,346.9137,48.6526,108.7309,0,0,0,2,0,0,0,48.6526,20.7359,0.91652,-27.9167,10,
116,1,8,2,449,1,195.6123,315.7137,16.8821,2,3,1,1,0,0,1,195.6123,212.2633,1.1179,16.651,20,
116,1,8,2,450,0,259.9911,109.775,347.5666,0,0,0,3,0,0,0,347.5666,343.1749,1.0626,-4.3918,30,
116,1,8,2,451,1,48.9206,255.8028,195.7729,3,1,2,3,1,0,0,195.7729,202.6659,1.2985,6.8931,30,
116,1,8,2,452,0,229.5021,285.9138,79.6101,0,0,0,1,0,0,0,229.5021,216.1268,0.84712,-13.3753,20,
116,1,8,2,453,1,46.9212,109.2804,16.7781,2,1,3,2,1,0,0,109.2804,97.0967,1.111,-12.1837,20,
116,1,8,2,454,1,285.5753,137.4622,167.1664,1,3,2,1,1,0,0,285.5753,277.0443,0.97213,-8.531,30,
116,1,8,2,455,1,225.7687,107.1047,345.2205,3,2,1,3,1,0,0,345.2205,346.5324,1.0555,1.3119,40,
116,1,8,2,456,1,259.544,198.8611,345.6215,2,3,1,3,0,1,0,345.6215,NaN,100000,999,0,
116,1,8,2,457,1,259.1287,317.8346,47.8808,3,1,2,3,1,0,0,47.8808,46.2285,1.118,-1.6523,40,
116,1,8,2,458,1,345.2443,139.0659,256.0072,1,3,2,1,1,0,0,345.2443,341.7175,1.2916,-3.5269,30,
116,1,8,2,459,0,75.6716,225.2684,316.0299,0,0,0,2,0,0,0,225.2684,38.535,1.0421,173.2666,0,
116,1,8,2,460,0,318.9342,79.1196,16.9142,0,0,0,1,0,0,0,318.9342,333.3325,1.2706,14.3983,20,
116,1,8,2,461,0,137.6481,259.4322,199.0779,0,0,0,3,0,0,0,199.0779,196.2276,0.90269,-2.8503,40,
116,1,8,2,462,0,285.2241,46.6735,79.0129,0,0,0,3,0,0,0,79.0129,232.677,1.3541,153.6641,0,
116,1,8,2,463,1,257.1099,198.1514,285.1967,3,1,2,3,1,0,0,285.1967,317.1526,0.62492,31.9559,0,
116,1,8,2,464,0,345.5319,225.4823,316.9794,0,0,0,2,0,0,0,225.4823,227.3732,1.1457,1.8909,40,
116,1,8,2,465,0,225.1487,349.2081,288.7696,0,0,0,3,0,0,0,288.7696,294.3375,0.60403,5.5679,30,
116,1,8,2,466,0,139.8569,76.621,16.013,0,0,0,2,0,0,0,76.621,74.495,0.79152,-2.126,40,
116,1,8,2,467,0,256.5495,196.6591,345.933,0,0,0,2,0,0,0,196.6591,210.1205,1.0902,13.4614,20,
116,1,8,2,468,1,137.3453,345.5207,76.8608,1,3,2,1,1,0,0,137.3453,142.3213,1.2852,4.9759,30,
116,1,8,2,469,1,198.1184,15.3786,256.4987,1,3,2,1,1,0,0,198.1184,209.2745,0.72917,11.156,30,
116,1,8,2,470,1,319.5611,197.8195,168.9727,1,2,3,1,1,0,0,319.5611,324.785,1.479,5.2238,30,
116,1,8,2,471,1,287.9795,199.0172,76.1351,1,2,3,1,1,0,0,287.9795,223.768,0.93053,-64.2115,0,
116,1,8,2,472,1,166.389,315.5156,75.9487,1,3,2,1,1,0,0,166.389,165.482,0.85411,-0.90708,40,
116,1,8,2,473,1,196.2629,17.998,166.2065,3,2,1,3,1,0,0,166.2065,155.1896,1.1667,-11.0169,30,
116,1,8,2,474,1,319.9973,78.3677,197.7492,2,1,3,3,0,0,1,197.7492,183.2501,1.2152,-14.4991,20,
116,1,8,2,475,1,346.695,318.6023,139.507,3,2,1,3,1,0,0,139.507,152.1853,0.97213,12.6784,20,
116,1,8,2,476,0,318.3723,49.6626,259.9424,0,0,0,1,0,0,0,318.3723,316.9441,1.0833,-1.4282,40,
116,1,8,2,477,0,49.9161,226.8259,76.3773,0,0,0,3,0,0,0,76.3773,72.6519,0.74995,-3.7254,30,
116,1,8,2,478,1,165.5087,227.7993,255.6139,1,3,2,3,0,1,0,255.6139,NaN,100000,999,0,
116,1,8,2,479,0,75.9708,259.7944,19.7697,0,0,0,2,0,0,0,259.7944,231.9846,1.0764,-27.8098,10,
116,1,8,2,480,0,347.2661,46.5168,135.6348,0,0,0,1,0,0,0,347.2661,350.0561,0.95129,2.79,40,
