Subject,Session,Block,Condition,Trial,whetherCued,leftStim,rightStim,midStim,remCueLoc,fogCueLoc,neutralCueLoc,probeCueLoc,probeRem,probeForget,probeNeutral,Target,Estimate,RT,Error,Points
124,1,1,2,1,0,49.7896,79.9464,316.1134,0,0,0,3,0,0,0,316.1134,300.0221,1.6105,-16.0913,20,
124,1,1,2,2,0,77.0194,199.4614,227.103,0,0,0,2,0,0,0,199.4614,233.3608,1.8532,33.8994,0,
124,1,1,2,3,1,107.3167,76.231,48.7899,1,3,2,1,1,0,0,107.3167,121.7048,1.3473,14.3881,20,
124,1,1,2,4,1,46.5011,229.286,259.0886,1,2,3,1,1,0,0,46.5011,43.4971,1.4791,-3.0039,30,
124,1,1,2,5,1,167.7587,285.8897,225.4277,3,2,1,3,1,0,0,225.4277,231.6729,1.3819,6.2452,30,
124,1,1,2,6,0,139.4448,16.7913,257.1701,0,0,0,2,0,0,0,16.7913,26.7123,1.0069,9.9211,30,
124,1,1,2,7,0,287.5328,228.5846,106.5061,0,0,0,2,0,0,0,228.5846,31.6483,1.5069,163.0637,0,
124,1,1,2,8,1,285.7947,107.626,166.5987,3,1,2,3,1,0,0,166.5987,191.3162,1.4027,24.7175,10,
124,1,1,2,9,1,45.2874,135.0467,79.1546,3,1,2,3,1,0,0,79.1546,57.4477,1.3821,-21.7069,10,
124,1,1,2,10,0,79.647,105.642,46.1049,0,0,0,2,0,0,0,105.642,130.1219,1.2777,24.4799,10,
124,1,1,2,11,1,136.1606,18.991,46.1892,1,3,2,2,0,0,1,18.991,114.8774,1.8055,95.8864,0,
124,1,1,2,12,1,79.8082,137.2081,288.4624,2,3,1,2,1,0,0,137.2081,111.5675,1.0069,-25.6406,10,
124,1,1,2,13,0,109.8696,78.5771,198.492,0,0,0,3,0,0,0,198.492,14.8035,2.0278,176.3116,0,
124,1,1,2,14,1,257.1834,225.656,198.267,3,1,2,3,1,0,0,198.267,203.7135,1.0763,5.4465,30,
124,1,1,2,15,1,288.0548,167.4508,77.2238,2,1,3,2,1,0,0,167.4508,176.6071,0.84717,9.1562,30,
124,1,1,2,16,0,49.7556,255.3335,19.7307,0,0,0,1,0,0,0,49.7556,200.6493,2.6387,150.8937,0,
124,1,1,2,17,1,45.2934,319.0682,76.7284,2,3,1,2,1,0,0,319.0682,325.5231,0.96585,6.4549,30,
124,1,1,2,18,1,286.8599,346.6542,105.0926,2,1,3,2,1,0,0,346.6542,331.0555,0.8611,-15.5988,20,
124,1,1,2,19,1,285.6755,229.6926,197.3393,1,3,2,1,1,0,0,285.6755,299.525,1.5902,13.8495,20,
124,1,1,2,20,1,139.9254,167.2356,75.3731,3,2,1,3,1,0,0,75.3731,50.2498,2.3748,-25.1234,10,
124,1,1,2,21,1,197.0647,19.8204,227.9956,2,1,3,1,0,1,0,197.0647,NaN,100000,999,0,
124,1,1,2,22,1,78.4508,138.1395,108.8821,1,3,2,3,0,1,0,108.8821,NaN,100000,999,0,
124,1,1,2,23,1,45.2953,226.1567,319.6772,2,1,3,2,1,0,0,226.1567,229.0903,2.1318,2.9336,40,
124,1,1,2,24,1,225.5774,45.6965,137.0227,1,3,2,1,1,0,0,225.5774,244.4284,0.84036,18.851,20,
124,1,1,2,25,1,135.8829,345.8672,79.2824,1,3,2,2,0,0,1,345.8672,61.4061,2.0069,75.5388,0,
124,1,1,2,26,1,139.625,347.4725,106.1053,3,2,1,3,1,0,0,106.1053,52.0039,2.0277,-54.1014,0,
124,1,1,2,27,1,49.1854,227.8516,108.9154,2,1,3,3,0,0,1,108.9154,101.3992,3.2081,-7.5162,30,
124,1,1,2,28,1,136.265,229.3607,287.681,3,1,2,2,0,0,1,229.3607,207.0173,1.868,-22.3434,10,
124,1,1,2,29,1,199.1968,317.8928,256.3782,2,1,3,2,1,0,0,317.8928,320.5223,1.0763,2.6294,40,
124,1,1,2,30,0,169.6031,226.8127,315.3177,0,0,0,3,0,0,0,315.3177,302.7316,0.64584,-12.5861,20,
124,1,1,2,31,0,347.8238,165.2285,49.6889,0,0,0,1,0,0,0,347.8238,349.2557,1.7081,1.4319,40,
124,1,1,2,32,1,135.9108,16.6392,345.1189,2,1,3,2,1,0,0,16.6392,357.6642,0.77791,-18.975,20,
124,1,1,2,33,0,19.1732,169.0778,287.7741,0,0,0,2,0,0,0,169.0778,22.4184,1.0625,-146.6593,0,
124,1,1,2,34,0,167.3649,288.591,225.64,0,0,0,3,0,0,0,225.64,117.449,1.5832,-108.1911,0,
124,1,1,2,35,1,135.7817,225.654,195.8518,2,1,3,2,1,0,0,225.654,356.8544,0.72217,131.2004,0,
124,1,1,2,36,0,168.3601,139.042,18.3845,0,0,0,1,0,0,0,168.3601,179.2623,0.93741,10.9022,30,
124,1,1,2,37,1,136.23,167.0824,226.8499,1,3,2,3,0,1,0,226.8499,NaN,100000,999,0,
124,1,1,2,38,1,135.2984,49.8434,105.3275,1,2,3,3,0,0,1,105.3275,111.285,1.736,5.9575,30,
124,1,1,2,39,1,138.8971,45.4316,75.8945,3,2,1,3,1,0,0,75.8945,100.584,2.4304,24.6895,10,
124,1,1,2,40,1,105.0693,46.3358,169.6604,2,1,3,2,1,0,0,46.3358,349.0926,0.87495,-57.2432,0,
124,1,1,2,41,0,49.4302,315.5335,108.1016,0,0,0,3,0,0,0,108.1016,84.9206,1.7157,-23.181,10,
124,1,1,2,42,0,139.8005,288.062,226.7679,0,0,0,1,0,0,0,139.8005,144.5759,1.0209,4.7754,30,
124,1,1,2,43,1,167.6678,48.1755,289.787,2,3,1,2,1,0,0,48.1755,41.1829,0.8263,-6.9926,30,
124,1,1,2,44,1,197.9081,229.34,345.6535,3,1,2,2,0,0,1,229.34,29.1413,1.0902,159.8013,0,
124,1,1,2,45,1,198.3868,316.8924,47.1722,2,3,1,2,1,0,0,316.8924,31.4325,0.88888,74.5401,0,
124,1,1,2,46,1,348.8737,46.761,135.9903,3,1,2,3,1,0,0,135.9903,137.545,0.76388,1.5547,40,
124,1,1,2,47,0,76.903,197.0924,45.3297,0,0,0,3,0,0,0,45.3297,318.3206,1.743,-87.009,0,
124,1,1,2,48,1,136.5088,229.1604,288.8523,1,3,2,2,0,0,1,229.1604,27.8758,1.0833,158.7154,0,
124,1,1,2,49,0,106.3387,229.2591,259.1417,0,0,0,3,0,0,0,259.1417,99.747,2.736,-159.3947,0,
124,1,1,2,50,0,225.4507,45.0226,165.9356,0,0,0,2,0,0,0,45.0226,45.0818,1.0414,0.059173,40,
124,1,1,2,51,1,195.0187,348.9883,316.4683,2,1,3,2,1,0,0,348.9883,17.9921,0.81245,29.0038,10,
124,1,1,2,52,0,256.5477,167.6544,347.6966,0,0,0,2,0,0,0,167.6544,42.3693,0.76382,-125.285,0,
124,1,1,2,53,1,48.4942,167.3936,196.9609,3,2,1,3,1,0,0,196.9609,200.1482,1.2847,3.1873,30,
124,1,1,2,54,1,77.8891,166.4372,198.8866,2,1,3,2,1,0,0,166.4372,133.987,0.94434,-32.4502,0,
124,1,1,2,55,1,198.7267,319.6301,78.7633,1,2,3,2,0,1,0,319.6301,NaN,100000,999,0,
124,1,1,2,56,0,105.7815,18.9205,318.0679,0,0,0,1,0,0,0,105.7815,152.577,0.99998,46.7955,0,
124,1,1,2,57,1,195.9681,75.3757,135.4207,2,3,1,2,1,0,0,75.3757,86.3428,0.82648,10.9671,30,
124,1,1,2,58,1,318.4292,136.9758,259.457,2,3,1,2,1,0,0,136.9758,114.54,0.97201,-22.4358,10,
124,1,1,2,59,0,315.8649,286.3007,139.7834,0,0,0,3,0,0,0,139.7834,126.4365,1.4443,-13.3468,20,
124,1,1,2,60,1,136.7631,349.82,167.8037,2,3,1,2,1,0,0,349.82,341.6583,0.84027,-8.1617,30,
124,1,2,2,61,1,167.6301,256.6044,226.4234,3,1,2,1,0,1,0,167.6301,NaN,100000,999,0,
124,1,2,2,62,1,137.7579,257.587,17.0248,1,2,3,1,1,0,0,137.7579,130.1347,0.75753,-7.6232,30,
124,1,2,2,63,0,285.1547,77.1619,137.0661,0,0,0,2,0,0,0,77.1619,83.3151,0.8194,6.1532,30,
124,1,2,2,64,1,197.0842,169.933,47.6953,1,2,3,1,1,0,0,197.0842,207.6785,0.743,10.5943,30,
124,1,2,2,65,1,47.3388,286.9021,228.4623,3,2,1,3,1,0,0,228.4623,218.2614,0.7569,-10.2009,30,
124,1,2,2,66,1,45.9318,319.7526,199.9844,1,2,3,3,0,0,1,199.9844,233.3712,1.4304,33.3867,0,
124,1,2,2,67,1,288.4085,317.6472,79.1872,3,2,1,2,0,1,0,317.6472,NaN,100000,999,0,
124,1,2,2,68,1,139.781,167.5432,196.0515,1,3,2,1,1,0,0,139.781,143.0052,0.95126,3.2242,30,
124,1,2,2,69,0,168.3628,106.6193,138.1707,0,0,0,3,0,0,0,138.1707,124.2376,1.0694,-13.9332,20,
124,1,2,2,70,0,228.9821,76.543,197.543,0,0,0,3,0,0,0,197.543,274.8572,1.2915,77.3142,0,
124,1,2,2,71,1,228.8666,319.9715,256.5864,1,2,3,1,1,0,0,228.8666,207.1655,0.993,-21.7011,10,
124,1,2,2,72,0,315.7351,225.6485,78.3033,0,0,0,2,0,0,0,225.6485,218.4734,1.4513,-7.175,30,
124,1,2,2,73,1,16.0743,46.4231,348.4227,2,3,1,2,1,0,0,46.4231,43.5978,0.8888,-2.8252,40,
124,1,2,2,74,0,316.6161,165.7748,79.37,0,0,0,1,0,0,0,316.6161,305.2914,2.8263,-11.3247,30,
124,1,2,2,75,1,349.5712,315.4876,19.3216,2,3,1,2,1,0,0,315.4876,338.57,1.1387,23.0824,10,
124,1,2,2,76,1,289.1401,197.774,316.6019,2,1,3,1,0,1,0,289.1401,NaN,100000,999,0,
124,1,2,2,77,1,318.2537,228.0656,288.7594,3,1,2,2,0,0,1,228.0656,355.3848,1.2499,127.3192,0,
124,1,2,2,78,0,349.0518,288.638,19.0051,0,0,0,3,0,0,0,19.0051,8.6961,0.97972,-10.309,30,
124,1,2,2,79,0,197.5932,318.5043,258.9229,0,0,0,1,0,0,0,197.5932,188.3985,1.1249,-9.1946,30,
124,1,2,2,80,0,166.6779,107.3901,136.1192,0,0,0,3,0,0,0,136.1192,118.1192,1.007,-18,20,
124,1,2,2,81,1,168.0325,79.5655,107.8591,2,3,1,3,0,1,0,107.8591,NaN,100000,999,0,
124,1,2,2,82,0,47.4385,286.522,315.7046,0,0,0,1,0,0,0,47.4385,197.8315,0.94441,150.393,0,
124,1,2,2,83,1,227.7914,108.7736,345.4821,3,1,2,2,0,0,1,108.7736,16.8461,0.97904,-91.9275,0,
124,1,2,2,84,1,168.4169,315.1683,229.6498,2,3,1,2,1,0,0,315.1683,323.1357,0.99991,7.9674,30,
124,1,2,2,85,1,49.5929,136.842,287.8145,1,2,3,1,1,0,0,49.5929,51.385,2.2429,1.7921,40,
124,1,2,2,86,0,198.5571,165.3131,135.3082,0,0,0,1,0,0,0,198.5571,201.4603,1.1666,2.9033,40,
124,1,2,2,87,0,75.3939,198.178,228.081,0,0,0,1,0,0,0,75.3939,117.8303,1.0902,42.4364,0,
124,1,2,2,88,1,257.4894,106.851,138.3061,2,3,1,2,1,0,0,106.851,118.587,0.99996,11.736,30,
124,1,2,2,89,0,169.1381,257.1404,77.5215,0,0,0,3,0,0,0,77.5215,275.3028,1.0694,-162.2188,0,
124,1,2,2,90,0,346.4828,135.2291,258.9999,0,0,0,1,0,0,0,346.4828,344.3412,1.0764,-2.1416,40,
124,1,2,2,91,1,169.8799,317.5524,76.9673,1,3,2,2,0,0,1,317.5524,313.2168,1.5763,-4.3356,30,
124,1,2,2,92,0,225.729,345.8152,167.6929,0,0,0,3,0,0,0,167.6929,14.0709,0.84019,-153.622,0,
124,1,2,2,93,1,285.6479,108.0648,139.8173,3,2,1,3,1,0,0,139.8173,172.1531,0.71528,32.3358,0,
124,1,2,2,94,1,255.4049,19.5107,346.2637,2,3,1,2,1,0,0,19.5107,43.2401,0.74295,23.7294,10,
124,1,2,2,95,1,166.5714,349.9771,315.9457,1,3,2,1,1,0,0,166.5714,164.6002,0.48619,-1.9712,40,
124,1,2,2,96,0,227.3712,258.984,165.1243,0,0,0,1,0,0,0,227.3712,199.8614,0.88882,-27.5098,10,
124,1,2,2,97,0,286.0524,107.1747,199.6655,0,0,0,2,0,0,0,107.1747,33.9727,0.78477,-73.202,0,
124,1,2,2,98,0,315.5124,45.1071,347.5846,0,0,0,1,0,0,0,315.5124,316.687,2.1526,1.1746,40,
124,1,2,2,99,1,48.4294,349.0523,15.754,1,2,3,1,1,0,0,48.4294,47.4543,0.94438,-0.97507,40,
124,1,2,2,100,1,347.0692,136.3647,318.4482,3,1,2,3,1,0,0,318.4482,319.6486,0.88893,1.2004,40,
124,1,2,2,101,0,289.4533,259.4763,48.9716,0,0,0,1,0,0,0,289.4533,301.4903,1.368,12.037,20,
124,1,2,2,102,0,135.2139,349.3533,79.4392,0,0,0,2,0,0,0,349.3533,24.342,1.0971,34.9887,0,
124,1,2,2,103,0,195.5347,47.2655,105.9686,0,0,0,1,0,0,0,195.5347,210.1006,0.82637,14.5659,20,
124,1,2,2,104,0,167.5928,47.1268,109.0606,0,0,0,1,0,0,0,167.5928,159.4435,0.88906,-8.1493,30,
124,1,2,2,105,0,49.8763,256.4109,319.8779,0,0,0,3,0,0,0,319.8779,324.2071,0.82632,4.3292,30,
124,1,2,2,106,1,109.997,319.404,45.1946,1,3,2,3,0,1,0,45.1946,NaN,100000,999,0,
124,1,2,2,107,1,288.5304,319.2904,76.3491,2,3,1,2,1,0,0,319.2904,317.002,0.47913,-2.2884,40,
124,1,2,2,108,1,259.2226,16.9048,75.448,2,1,3,2,1,0,0,16.9048,338.3708,0.49296,-38.534,0,
124,1,2,2,109,0,287.3023,107.8037,348.281,0,0,0,3,0,0,0,348.281,342.5329,1.2013,-5.7481,30,
124,1,2,2,110,1,107.3051,76.5081,287.7735,1,3,2,1,1,0,0,107.3051,111.3056,1.0833,4.0005,30,
124,1,2,2,111,1,287.4029,45.335,195.4102,2,1,3,3,0,0,1,195.4102,332.9231,1.3194,137.5129,0,
124,1,2,2,112,1,319.2486,49.3263,15.3706,1,2,3,1,1,0,0,319.2486,310.7579,0.90971,-8.4907,30,
124,1,2,2,113,1,47.8205,76.1069,167.9354,3,2,1,2,0,1,0,76.1069,NaN,100000,999,0,
124,1,2,2,114,1,348.0664,286.3547,317.3484,2,1,3,3,0,0,1,317.3484,321.1611,1.0066,3.8127,30,
124,1,2,2,115,0,77.1119,17.5712,286.6792,0,0,0,1,0,0,0,77.1119,46.2153,1.7222,-30.8965,0,
124,1,2,2,116,0,15.0253,285.8329,109.373,0,0,0,1,0,0,0,15.0253,47.072,1.6666,32.0467,0,
124,1,2,2,117,0,49.0875,78.6786,165.791,0,0,0,3,0,0,0,165.791,82.209,1.4235,-83.5819,0,
124,1,2,2,118,1,45.8186,137.9201,229.5456,3,2,1,3,1,0,0,229.5456,224.5177,0.88877,-5.0279,30,
124,1,2,2,119,1,255.7269,226.5693,165.0033,3,2,1,2,0,1,0,226.5693,NaN,100000,999,0,
124,1,2,2,120,0,165.0577,256.1944,317.3095,0,0,0,1,0,0,0,165.0577,149.3972,0.72919,-15.6605,20,
124,1,3,1,121,0,45.3671,17.764,257.0834,0,0,0,2,0,0,0,17.764,26.4614,0.96498,8.6974,30,
124,1,3,1,122,1,16.4573,139.8181,285.0819,3,1,2,3,1,0,0,285.0819,229.8494,0.50045,-55.2325,0,
124,1,3,1,123,0,17.9325,109.415,228.9559,0,0,0,1,0,0,0,17.9325,150.5286,0.91656,132.5961,0,
124,1,3,1,124,0,288.6023,319.5767,168.6395,0,0,0,3,0,0,0,168.6395,155.1691,1.486,-13.4704,20,
124,1,3,1,125,1,347.3289,138.8727,108.5212,2,3,1,2,1,0,0,138.8727,134.8789,0.8611,-3.9938,30,
124,1,3,1,126,0,105.0866,288.6947,75.2735,0,0,0,3,0,0,0,75.2735,105.71,1.0625,30.4365,0,
124,1,3,1,127,1,105.8021,286.8138,136.3881,3,1,2,3,1,0,0,136.3881,122.1871,0.70825,-14.2009,20,
124,1,3,1,128,1,105.4642,76.663,288.4675,1,3,2,1,1,0,0,105.4642,116.4157,0.59022,10.9515,30,
124,1,3,1,129,1,317.8528,16.6178,169.7863,3,1,2,3,1,0,0,169.7863,154.0054,0.58339,-15.7809,20,
124,1,3,1,130,1,46.4508,108.429,226.544,2,1,3,3,0,0,1,226.544,210.9265,0.84716,-15.6175,20,
124,1,3,1,131,1,195.1918,106.3284,46.511,2,3,1,2,1,0,0,106.3284,126.9673,1.0832,20.6389,20,
124,1,3,1,132,1,348.7205,136.6838,169.0068,1,2,3,3,0,0,1,169.0068,139.9987,1.3749,-29.008,10,
124,1,3,1,133,1,347.2198,78.5229,199.909,3,1,2,3,1,0,0,199.909,218.6996,0.97916,18.7906,20,
124,1,3,1,134,1,48.0302,79.2868,15.7845,1,3,2,3,0,1,0,15.7845,252.3748,2.2915,-123.4097,0,
124,1,3,1,135,1,316.9259,229.2826,109.6127,2,1,3,1,0,1,0,316.9259,18.5936,1.7707,61.6677,0,
124,1,3,1,136,0,195.0036,317.7327,17.8215,0,0,0,2,0,0,0,317.7327,3.9098,0.80559,46.1771,0,
124,1,3,1,137,1,19.5432,345.5759,318.7218,3,2,1,1,0,0,1,19.5432,311.9465,1.0973,-67.5967,0,
124,1,3,1,138,0,319.6414,49.4647,107.9935,0,0,0,2,0,0,0,49.4647,358.8742,0.94425,-50.5904,0,
124,1,3,1,139,0,229.6514,108.0118,258.6449,0,0,0,1,0,0,0,229.6514,207.2414,0.71527,-22.4101,10,
124,1,3,1,140,1,76.912,166.0858,259.2257,3,2,1,3,1,0,0,259.2257,227.6012,0.80548,-31.6245,0,
124,1,3,1,141,0,135.0349,15.8694,78.8387,0,0,0,2,0,0,0,15.8694,32.6191,1.1666,16.7497,20,
124,1,3,1,142,0,15.2111,75.7878,196.8068,0,0,0,2,0,0,0,75.7878,54.2097,0.65279,-21.5781,10,
124,1,3,1,143,0,18.0791,108.991,169.1012,0,0,0,3,0,0,0,169.1012,202.6534,0.97906,33.5522,0,
124,1,3,1,144,1,346.1677,76.0985,286.2963,2,3,1,2,1,0,0,76.0985,109.5683,0.60371,33.4698,0,
124,1,3,1,145,1,199.1113,289.3245,166.6937,3,2,1,1,0,0,1,199.1113,213.7798,1.2291,14.6686,20,
124,1,3,1,146,1,16.6498,75.4703,229.1588,3,1,2,3,1,0,0,229.1588,219.7675,0.84724,-9.3913,30,
124,1,3,1,147,1,168.2834,257.6777,45.7402,2,3,1,2,1,0,0,257.6777,326.5949,0.68052,68.9172,0,
124,1,3,1,148,1,168.7562,316.9016,46.3313,2,3,1,2,1,0,0,316.9016,328.1763,1.1804,11.2746,30,
124,1,3,1,149,1,286.8301,259.2503,319.7088,3,2,1,3,1,0,0,319.7088,325.6127,0.81243,5.9039,30,
124,1,3,1,150,1,169.813,135.4378,16.2783,1,2,3,1,1,0,0,169.813,172.2754,0.79162,2.4624,40,
124,1,3,1,151,0,108.8506,229.1065,285.5739,0,0,0,1,0,0,0,108.8506,142.4205,0.75684,33.5699,0,
124,1,3,1,152,0,75.7997,227.1086,287.7935,0,0,0,2,0,0,0,227.1086,106.1489,0.93794,-120.9596,0,
124,1,3,1,153,1,108.4989,226.1455,288.9949,1,2,3,1,1,0,0,108.4989,128.5291,0.74301,20.0302,20,
124,1,3,1,154,1,229.6674,316.0235,345.2026,3,2,1,1,0,0,1,229.6674,131.5409,0.93051,-98.1265,0,
124,1,3,1,155,0,48.8292,318.5057,196.9738,0,0,0,3,0,0,0,196.9738,328.4534,0.84024,131.4796,0,
124,1,3,1,156,0,316.1095,106.1098,287.2353,0,0,0,3,0,0,0,287.2353,300.5738,0.81938,13.3386,20,
124,1,3,1,157,1,256.1583,226.0451,318.0494,2,1,3,2,1,0,0,226.0451,208.7232,0.81246,-17.322,20,
124,1,3,1,158,1,195.7293,168.5903,16.4374,3,1,2,3,1,0,0,16.4374,24.3003,0.5902,7.863,30,
124,1,3,1,159,1,168.193,287.4894,229.6082,1,3,2,1,1,0,0,168.193,193.5805,0.65966,25.3875,10,
124,1,3,1,160,0,47.1054,79.7742,255.9474,0,0,0,3,0,0,0,255.9474,256.2232,0.9931,0.27575,40,
124,1,3,1,161,1,48.0219,169.9816,255.639,2,1,3,2,1,0,0,169.9816,167.4042,1.0138,-2.5774,40,
124,1,3,1,162,0,166.8107,77.7085,105.9141,0,0,0,1,0,0,0,166.8107,152.616,0.89575,-14.1946,20,
124,1,3,1,163,0,228.2537,199.3408,316.7389,0,0,0,2,0,0,0,199.3408,192.4461,1.1944,-6.8947,30,
124,1,3,1,164,1,79.6755,229.2107,168.899,3,2,1,3,1,0,0,168.899,205.7042,1.014,36.8053,0,
124,1,3,1,165,0,347.1626,197.4493,315.0263,0,0,0,2,0,0,0,197.4493,167.1057,0.90271,-30.3435,0,
124,1,3,1,166,1,76.0121,348.7798,19.7216,1,3,2,1,1,0,0,76.0121,112.6166,0.52773,36.6044,0,
124,1,3,1,167,0,289.4188,199.8567,48.159,0,0,0,3,0,0,0,48.159,34.4104,1.2429,-13.7486,20,
124,1,3,1,168,0,75.6025,109.1368,18.7314,0,0,0,2,0,0,0,109.1368,142.5006,0.88884,33.3638,0,
124,1,3,1,169,0,287.5456,167.9106,135.2279,0,0,0,2,0,0,0,167.9106,136.6151,0.91657,-31.2955,0,
124,1,3,1,170,0,286.6719,319.2714,75.0754,0,0,0,1,0,0,0,286.6719,315.9841,1.4651,29.3122,10,
124,1,3,1,171,1,77.9545,285.0169,137.4278,1,2,3,2,0,1,0,285.0169,88.8323,0.81257,163.8154,0,
124,1,3,1,172,0,135.095,345.4361,167.0706,0,0,0,1,0,0,0,135.095,173.0436,0.64584,37.9485,0,
124,1,3,1,173,1,166.4906,257.6754,225.8735,3,2,1,2,0,1,0,257.6754,61.2218,1.5832,163.5463,0,
124,1,3,1,174,1,256.8338,198.2257,48.0853,1,3,2,1,1,0,0,256.8338,222.3669,1.2777,-34.4669,0,
124,1,3,1,175,0,289.4399,49.5661,318.1183,0,0,0,3,0,0,0,318.1183,359.2729,0.93045,41.1546,0,
124,1,3,1,176,0,227.2282,346.9787,169.8509,0,0,0,3,0,0,0,169.8509,207.1057,1.3609,37.2549,0,
124,1,3,1,177,1,77.8421,228.6618,317.0498,3,1,2,3,1,0,0,317.0498,316.6339,0.84724,-0.41582,40,
124,1,3,1,178,1,285.3884,256.3126,136.8142,2,3,1,1,0,0,1,285.3884,11.7964,1.6942,86.408,0,
124,1,3,1,179,1,79.469,45.2906,346.6152,3,2,1,3,1,0,0,346.6152,343.7069,0.89576,-2.9083,40,
124,1,3,1,180,1,48.3381,288.757,199.864,2,3,1,2,1,0,0,288.757,324.4296,1.2707,35.6726,0,
124,1,4,1,181,1,319.1507,49.1096,286.6385,1,3,2,1,1,0,0,319.1507,153.4957,0.59015,-165.6549,0,
124,1,4,1,182,1,286.759,196.8689,348.5008,2,3,1,1,0,0,1,286.759,333.6888,1.4444,46.9298,0,
124,1,4,1,183,0,107.5925,78.6014,139.557,0,0,0,3,0,0,0,139.557,125.0158,0.96532,-14.5412,20,
124,1,4,1,184,1,137.0836,195.1206,76.0009,1,3,2,1,1,0,0,137.0836,130.9623,0.83325,-6.1213,30,
124,1,4,1,185,1,256.5881,78.4429,319.3828,2,1,3,2,1,0,0,78.4429,98.0913,0.62497,19.6484,20,
124,1,4,1,186,1,19.8328,257.5742,289.7055,1,2,3,1,1,0,0,19.8328,48.6754,0.87492,28.8427,10,
124,1,4,1,187,0,319.9218,76.4011,136.1375,0,0,0,1,0,0,0,319.9218,334.4876,1.3749,14.5657,20,
124,1,4,1,188,1,139.8512,228.1325,19.258,3,2,1,3,1,0,0,19.258,15.8989,0.63191,-3.3591,30,
124,1,4,1,189,0,138.0547,289.0306,255.1701,0,0,0,1,0,0,0,138.0547,128.7598,0.97232,-9.2949,30,
124,1,4,1,190,1,318.4735,135.2007,108.6708,1,2,3,2,0,1,0,135.2007,284.1342,1.2499,148.9335,0,
124,1,4,1,191,1,285.3241,258.5009,46.5781,3,2,1,2,0,1,0,258.5009,227.45,1.5903,-31.0509,0,
124,1,4,1,192,0,76.3422,47.204,315.4813,0,0,0,1,0,0,0,76.3422,48.8013,0.95128,-27.541,10,
124,1,4,1,193,0,346.8496,19.2383,226.3741,0,0,0,2,0,0,0,19.2383,352.8174,1.104,-26.4208,10,
124,1,4,1,194,0,319.4716,75.7797,286.5528,0,0,0,1,0,0,0,319.4716,312.0173,1.0902,-7.4542,30,
124,1,4,1,195,0,289.7864,195.3463,136.0869,0,0,0,1,0,0,0,289.7864,326.8596,1.1665,37.0732,0,
124,1,4,1,196,1,229.6725,109.8643,315.4473,3,2,1,2,0,1,0,109.8643,321.8783,1.4096,-147.9861,0,
124,1,4,1,197,1,135.4925,258.9661,227.8066,2,3,1,3,0,1,0,227.8066,314.1256,1.2501,86.319,0,
124,1,4,1,198,1,17.2003,78.8124,195.0438,1,2,3,1,1,0,0,17.2003,33.5934,0.68744,16.3931,20,
124,1,4,1,199,1,346.0231,47.6184,226.1865,1,3,2,1,1,0,0,346.0231,318.392,0.86107,-27.6311,10,
124,1,4,1,200,0,196.483,77.1038,346.9809,0,0,0,2,0,0,0,77.1038,98.453,0.69443,21.3492,10,
124,1,4,1,201,0,346.3624,15.2497,315.8265,0,0,0,1,0,0,0,346.3624,351.5171,1.0486,5.1547,30,
124,1,4,1,202,1,319.4416,49.9606,256.9191,1,3,2,2,0,0,1,49.9606,22.3148,0.73608,-27.6458,10,
124,1,4,1,203,1,228.6893,259.3661,316.6298,1,3,2,2,0,0,1,259.3661,52.7678,1.4513,153.4017,0,
124,1,4,1,204,0,167.9542,256.3643,77.3228,0,0,0,1,0,0,0,167.9542,203.8235,0.77084,35.8693,0,
124,1,4,1,205,0,229.2203,169.5079,318.8984,0,0,0,2,0,0,0,169.5079,154.586,0.94431,-14.9219,20,
124,1,4,1,206,0,106.0757,197.289,287.5851,0,0,0,1,0,0,0,106.0757,129.1728,0.94432,23.097,10,
124,1,4,1,207,0,107.2912,166.3153,255.921,0,0,0,3,0,0,0,255.921,225.3426,1.0625,-30.5784,0,
124,1,4,1,208,1,319.5876,289.7294,46.7167,1,3,2,1,1,0,0,319.5876,174.8884,0.66662,-144.6992,0,
124,1,4,1,209,0,106.5336,227.3643,318.2923,0,0,0,3,0,0,0,318.2923,354.3082,0.6874,36.0159,0,
124,1,4,1,210,0,76.9959,256.2549,109.9814,0,0,0,1,0,0,0,76.9959,77.3226,1.9929,0.32673,40,
124,1,4,1,211,0,197.7999,227.8285,137.9923,0,0,0,2,0,0,0,227.8285,204.6343,0.93741,-23.1942,10,
124,1,4,1,212,0,199.1692,255.3979,227.0045,0,0,0,1,0,0,0,199.1692,206.121,1.0207,6.9518,30,
124,1,4,1,213,0,228.6097,315.139,346.3304,0,0,0,2,0,0,0,315.139,8.5429,0.90266,53.4039,0,
124,1,4,1,214,0,48.6644,199.7895,225.6489,0,0,0,1,0,0,0,48.6644,203.165,0.8402,154.5005,0,
124,1,4,1,215,1,196.5867,229.1823,169.0975,2,3,1,1,0,0,1,196.5867,200.1218,1.1249,3.5351,30,
124,1,4,1,216,1,77.4603,166.4598,318.313,2,1,3,2,1,0,0,166.4598,141.5822,0.9791,-24.8776,10,
124,1,4,1,217,1,18.9262,348.3209,108.6558,1,2,3,1,1,0,0,18.9262,21.5827,0.72222,2.6565,40,
124,1,4,1,218,1,259.9226,318.5131,18.7247,3,1,2,3,1,0,0,18.7247,22.1498,0.65973,3.4251,30,
124,1,4,1,219,1,229.3481,77.0349,255.4741,1,3,2,2,0,0,1,77.0349,32.0156,0.72214,-45.0192,0,
124,1,4,1,220,1,19.736,317.1793,226.306,3,2,1,3,1,0,0,226.306,222.1258,0.65968,-4.1802,30,
124,1,4,1,221,0,199.1682,228.0939,45.8544,0,0,0,2,0,0,0,228.0939,48.3473,0.72912,-179.7465,0,
124,1,4,1,222,1,76.9181,16.5354,107.062,2,1,3,2,1,0,0,16.5354,37.2213,0.37502,20.6859,20,
124,1,4,1,223,1,49.0839,198.551,348.483,2,1,3,3,0,0,1,348.483,49.7872,1.5971,61.3042,0,
124,1,4,1,224,0,109.0532,49.498,289.4304,0,0,0,1,0,0,0,109.0532,123.6473,0.80558,14.5942,20,
124,1,4,1,225,0,15.3977,108.3505,287.6242,0,0,0,2,0,0,0,108.3505,120.9648,0.8333,12.6143,20,
124,1,4,1,226,1,76.2829,316.1748,346.7998,1,2,3,1,1,0,0,76.2829,58.4209,0.52778,-17.862,20,
124,1,4,1,227,0,347.8015,136.9414,196.5129,0,0,0,3,0,0,0,196.5129,145.8205,0.98598,-50.6923,0,
124,1,4,1,228,0,287.5805,198.4848,257.2128,0,0,0,3,0,0,0,257.2128,242.6899,0.72226,-14.5229,20,
124,1,4,1,229,1,76.7487,169.6823,18.6224,3,2,1,3,1,0,0,18.6224,23.3544,0.4098,4.7319,30,
124,1,4,1,230,1,169.99,197.089,228.8288,2,1,3,3,0,0,1,228.8288,75.6684,1.3402,-153.1604,0,
124,1,4,1,231,1,76.0219,167.5687,197.3586,3,2,1,3,1,0,0,197.3586,226.1878,0.61809,28.8292,10,
124,1,4,1,232,0,107.9681,315.8429,348.3127,0,0,0,1,0,0,0,107.9681,122.1192,0.87494,14.1511,20,
124,1,4,1,233,1,345.8325,48.971,285.3122,2,3,1,2,1,0,0,48.971,48.6031,0.49999,-0.36796,40,
124,1,4,1,234,1,286.8011,77.2218,317.1573,2,1,3,2,1,0,0,77.2218,53.4208,0.37499,-23.801,10,
124,1,4,1,235,1,18.2231,169.175,255.2369,1,2,3,1,1,0,0,18.2231,49.2421,0.66661,31.019,0,
124,1,4,1,236,0,109.1052,139.1284,346.2755,0,0,0,3,0,0,0,346.2755,144.5415,0.72222,158.2661,0,
124,1,4,1,237,1,319.9823,228.0589,345.0925,2,3,1,3,0,1,0,345.0925,343.5958,1.1041,-1.4966,40,
124,1,4,1,238,0,48.3632,226.9539,105.1998,0,0,0,1,0,0,0,48.3632,44.3606,1.3546,-4.0026,30,
124,1,4,1,239,1,259.684,109.4295,19.1805,1,2,3,1,1,0,0,259.684,233.9083,0.90268,-25.7756,10,
124,1,4,1,240,1,318.0886,255.7351,105.5371,1,2,3,1,1,0,0,318.0886,318.2935,1.0556,0.20488,40,
124,1,5,1,241,0,135.6957,108.9836,285.6645,0,0,0,1,0,0,0,135.6957,120.5076,0.97903,-15.1882,20,
124,1,5,1,242,0,289.6205,137.0813,16.6098,0,0,0,1,0,0,0,289.6205,306.1891,1.5276,16.5685,20,
124,1,5,1,243,1,105.6849,17.165,349.2011,2,1,3,1,0,1,0,105.6849,11.4629,1.2221,-94.222,0,
124,1,5,1,244,0,287.1638,105.1022,225.7924,0,0,0,2,0,0,0,105.1022,115.3646,0.65274,10.2623,30,
124,1,5,1,245,0,227.3488,287.3207,78.052,0,0,0,1,0,0,0,227.3488,227.9811,1.4236,0.63227,40,
124,1,5,1,246,1,288.4321,228.223,105.5927,1,3,2,1,1,0,0,288.4321,268.6279,1.0416,-19.8043,20,
124,1,5,1,247,0,167.1625,196.0863,78.5938,0,0,0,2,0,0,0,196.0863,164.0484,2.0694,-32.038,0,
124,1,5,1,248,1,168.065,348.5242,139.2691,1,3,2,1,1,0,0,168.065,177.5498,0.79172,9.4848,30,
124,1,5,1,249,0,166.3544,106.2473,199.6774,0,0,0,2,0,0,0,106.2473,94.0947,1.0208,-12.1526,20,
124,1,5,1,250,1,19.7248,199.2446,45.5075,3,1,2,1,0,1,0,19.7248,188.218,1.1735,168.4932,0,
124,1,5,1,251,1,108.1943,46.5797,165.3894,2,3,1,2,1,0,0,46.5797,18.0636,0.93056,-28.5162,10,
124,1,5,1,252,1,18.7609,197.4369,107.1016,3,2,1,1,0,0,1,18.7609,42.6354,2.1526,23.8745,10,
124,1,5,1,253,1,228.1132,318.3164,348.2657,2,1,3,2,1,0,0,318.3164,1.6825,0.9791,43.366,0,
124,1,5,1,254,0,76.4339,347.459,197.7996,0,0,0,1,0,0,0,76.4339,41.8324,1.1666,-34.6015,0,
124,1,5,1,255,0,107.0625,165.9279,75.1195,0,0,0,3,0,0,0,75.1195,80.5793,1.1667,5.4598,30,
124,1,5,1,256,1,258.1489,289.1489,346.2885,1,3,2,2,0,0,1,289.1489,324.1632,1.0555,35.0143,0,
124,1,5,1,257,1,316.9612,139.4658,348.3172,1,3,2,1,1,0,0,316.9612,307.5384,0.8194,-9.4227,30,
124,1,5,1,258,1,228.6563,79.5999,137.4769,3,1,2,3,1,0,0,137.4769,132.1134,0.95136,-5.3635,30,
124,1,5,1,259,0,79.0563,318.7934,17.1159,0,0,0,2,0,0,0,318.7934,328.0585,1.458,9.2651,30,
124,1,5,1,260,1,106.2942,137.8854,167.3378,1,2,3,1,1,0,0,106.2942,132.9663,0.60419,26.6721,10,
124,1,5,1,261,0,288.4504,47.585,345.9817,0,0,0,2,0,0,0,47.585,33.1694,1.4234,-14.4156,20,
124,1,5,1,262,1,228.8305,49.5527,167.3951,1,2,3,3,0,0,1,167.3951,218.497,1.2361,51.102,0,
124,1,5,1,263,1,195.887,46.9796,287.4608,2,1,3,2,1,0,0,46.9796,19.9418,0.84027,-27.0378,10,
124,1,5,1,264,0,259.2475,78.2639,347.5938,0,0,0,2,0,0,0,78.2639,40.3151,0.81247,-37.9488,0,
124,1,5,1,265,0,109.2478,46.192,195.5791,0,0,0,2,0,0,0,46.192,23.6693,1.0139,-22.5227,10,
124,1,5,1,266,1,108.0933,49.9801,345.0676,2,3,1,2,1,0,0,49.9801,33.3614,0.46497,-16.6187,20,
124,1,5,1,267,1,285.1394,109.4368,229.5828,1,2,3,2,0,1,0,109.4368,37.5281,0.83329,-71.9086,0,
124,1,5,1,268,1,166.8407,345.8715,48.8406,2,3,1,2,1,0,0,345.8715,1.5618,0.76382,15.6903,20,
124,1,5,1,269,1,349.8504,167.6536,46.7037,2,3,1,2,1,0,0,167.6536,137.4784,0.68747,-30.1752,0,
124,1,5,1,270,1,165.1437,316.794,199.3211,1,3,2,2,0,0,1,316.794,121.9309,0.88889,165.1369,0,
124,1,5,1,271,0,106.2118,345.9783,138.4999,0,0,0,2,0,0,0,345.9783,339.2897,1.6873,-6.6886,30,
124,1,5,1,272,1,288.4404,49.9428,135.3017,3,1,2,3,1,0,0,135.3017,147.5497,0.60411,12.248,20,
124,1,5,1,273,1,347.8252,107.7252,79.8696,1,3,2,1,1,0,0,347.8252,318.7391,0.986,-29.0861,10,
124,1,5,1,274,1,287.0698,139.6229,17.282,3,1,2,2,0,0,1,139.6229,358.688,1.3333,-140.9348,0,
124,1,5,1,275,1,345.8267,49.9573,285.3367,3,1,2,3,1,0,0,285.3367,291.1827,0.43049,5.846,30,
124,1,5,1,276,1,346.9718,109.405,316.4648,2,1,3,1,0,1,0,346.9718,126.6114,0.88887,139.6395,0,
124,1,5,1,277,0,319.7698,285.3432,136.7088,0,0,0,3,0,0,0,136.7088,122.4676,1.0485,-14.2413,20,
124,1,5,1,278,0,16.5731,165.8092,255.2115,0,0,0,3,0,0,0,255.2115,187.9511,0.88883,-67.2604,0,
124,1,5,1,279,1,166.3119,135.2038,288.2441,2,3,1,2,1,0,0,135.2038,134.3551,0.93745,-0.84871,40,
124,1,5,1,280,1,78.2531,198.1727,136.4908,2,1,3,2,1,0,0,198.1727,148.8197,0.68045,-49.353,0,
124,1,5,1,281,1,318.8216,346.4861,167.4867,3,1,2,3,1,0,0,167.4867,160.9807,0.6522,-6.5059,30,
124,1,5,1,282,0,346.244,108.5655,138.6674,0,0,0,1,0,0,0,346.244,336.0993,1.5486,-10.1447,30,
124,1,5,1,283,1,75.4637,285.1052,227.6462,3,1,2,1,0,1,0,75.4637,46.3931,1.9235,-29.0706,10,
124,1,5,1,284,0,198.0859,19.0835,138.0043,0,0,0,3,0,0,0,138.0043,121.0994,0.88878,-16.9049,20,
124,1,5,1,285,1,15.477,49.9249,257.1158,2,1,3,2,1,0,0,49.9249,47.4129,0.56238,-2.512,40,
124,1,5,1,286,0,255.1046,287.9587,165.198,0,0,0,3,0,0,0,165.198,123.162,0.95136,-42.036,0,
124,1,5,1,287,0,79.3242,349.8035,19.5499,0,0,0,3,0,0,0,19.5499,66.3638,0.93743,46.8139,0,
124,1,5,1,288,1,196.9551,285.5794,46.5419,3,2,1,3,1,0,0,46.5419,59.8156,1.625,13.2737,20,
124,1,5,1,289,0,17.8394,139.1235,229.8291,0,0,0,2,0,0,0,139.1235,137.506,0.8194,-1.6175,40,
124,1,5,1,290,0,105.1774,16.1086,49.0408,0,0,0,2,0,0,0,16.1086,22.8932,0.88884,6.7846,30,
124,1,5,1,291,1,135.911,347.063,255.8389,3,1,2,1,0,1,0,135.911,131.0256,0.86811,-4.8855,30,
124,1,5,1,292,1,347.4942,105.9765,319.8191,1,2,3,3,0,0,1,319.8191,105.8549,1.0417,146.0357,0,
124,1,5,1,293,1,227.5388,76.9713,316.9141,3,1,2,3,1,0,0,316.9141,333.2877,0.75001,16.3736,20,
124,1,5,1,294,0,227.1475,258.4805,196.0925,0,0,0,2,0,0,0,258.4805,225.7032,0.81931,-32.7773,0,
124,1,5,1,295,1,287.6638,17.7888,198.4672,2,3,1,2,1,0,0,17.7888,15.1192,0.41665,-2.6696,40,
124,1,5,1,296,0,347.5182,45.635,286.5259,0,0,0,3,0,0,0,286.5259,316.7106,1.0971,30.1848,0,
124,1,5,1,297,1,47.4659,349.1507,229.5924,2,1,3,1,0,1,0,47.4659,6.115,1.2291,-41.3509,0,
124,1,5,1,298,0,108.3954,138.5708,195.688,0,0,0,3,0,0,0,195.688,129.2795,1.1805,-66.4085,0,
124,1,5,1,299,1,16.6666,197.275,45.042,2,3,1,2,1,0,0,197.275,201.6432,0.79167,4.3682,30,
124,1,5,1,300,1,168.6076,228.1828,49.729,1,2,3,1,1,0,0,168.6076,148.2101,1,-20.3974,20,
124,1,6,1,301,1,349.276,289.6534,318.8978,1,2,3,1,1,0,0,349.276,174.7489,0.86802,-174.5271,0,
124,1,6,1,302,1,169.7503,18.0276,79.0528,1,2,3,3,0,0,1,79.0528,143.6159,0.99306,64.5631,0,
124,1,6,1,303,1,348.8026,255.6956,48.0353,1,3,2,1,1,0,0,348.8026,36.8672,0.32641,48.0646,0,
124,1,6,1,304,1,79.2567,136.2341,317.157,2,3,1,3,0,1,0,317.157,145.5806,1.0833,-171.5764,0,
124,1,6,1,305,1,138.6301,77.9276,289.761,1,3,2,1,1,0,0,138.6301,142.3236,0.46494,3.6935,30,
124,1,6,1,306,0,167.9562,257.4806,347.4647,0,0,0,1,0,0,0,167.9562,155.1544,1.4444,-12.8018,20,
124,1,6,1,307,1,76.1141,315.1313,285.9054,1,3,2,1,1,0,0,76.1141,87.0132,0.33336,10.8991,30,
124,1,6,1,308,1,315.4429,108.7977,345.3481,3,1,2,3,1,0,0,345.3481,198.8838,1.7569,-146.4643,0,
124,1,6,1,309,1,319.3995,196.8921,289.1325,1,3,2,3,0,1,0,289.1325,155.3007,1.0834,-133.8318,0,
124,1,6,1,310,1,258.4335,226.7967,286.5474,2,3,1,2,1,0,0,226.7967,223.5898,0.94434,-3.2068,30,
124,1,6,1,311,1,17.3162,77.2873,167.9481,3,2,1,3,1,0,0,167.9481,149.5959,0.29175,-18.3522,20,
124,1,6,1,312,1,195.4627,287.4819,106.1432,3,1,2,3,1,0,0,106.1432,129.4551,0.45132,23.3119,10,
124,1,6,1,313,1,76.5699,17.8829,345.6083,2,1,3,2,1,0,0,17.8829,37.1023,0.493,19.2194,20,
124,1,6,1,314,0,138.0818,79.8007,45.1939,0,0,0,1,0,0,0,138.0818,130.3918,0.6528,-7.69,30,
124,1,6,1,315,1,48.7453,288.6061,17.6153,3,2,1,3,1,0,0,17.6153,8.9789,0.75698,-8.6364,30,
124,1,6,1,316,1,76.7276,135.3013,47.2202,3,1,2,1,0,1,0,76.7276,67.692,1.1528,-9.0356,30,
124,1,6,1,317,1,135.7664,18.2568,105.8025,2,1,3,2,1,0,0,18.2568,20.3375,0.49302,2.0807,40,
124,1,6,1,318,0,46.8303,76.5296,108.0191,0,0,0,3,0,0,0,108.0191,81.9951,0.88882,-26.024,10,
124,1,6,1,319,0,289.7642,46.6762,258.468,0,0,0,3,0,0,0,258.468,246.3586,0.68056,-12.1094,20,
124,1,6,1,320,1,347.7297,168.1533,256.9656,1,2,3,1,1,0,0,347.7297,349.0955,1.0902,1.3659,40,
124,1,6,1,321,0,197.2314,258.9811,49.0688,0,0,0,3,0,0,0,49.0688,56.9741,0.76381,7.9052,30,
124,1,6,1,322,0,166.4604,195.4281,108.228,0,0,0,1,0,0,0,166.4604,150.6412,0.94435,-15.8192,20,
124,1,6,1,323,0,228.4831,319.3725,47.8385,0,0,0,1,0,0,0,228.4831,201.0732,0.76394,-27.4099,10,
124,1,6,1,324,0,348.7871,45.0393,106.3275,0,0,0,3,0,0,0,106.3275,141.585,1.5415,35.2576,0,
124,1,6,1,325,1,45.5714,107.1663,76.4239,3,1,2,2,0,0,1,107.1663,138.8728,1.118,31.7066,0,
124,1,6,1,326,1,49.5589,349.7847,196.7966,3,2,1,3,1,0,0,196.7966,203.8448,0.70145,7.0482,30,
124,1,6,1,327,1,348.8138,168.6138,199.2722,2,1,3,2,1,0,0,168.6138,149.2039,0.59033,-19.4099,20,
124,1,6,1,328,0,78.2539,199.2359,106.7295,0,0,0,3,0,0,0,106.7295,127.8605,0.93059,21.1309,10,
124,1,6,1,329,1,76.845,47.1161,17.8572,1,3,2,1,1,0,0,76.845,116.3245,0.67348,39.4795,0,
124,1,6,1,330,1,256.9032,46.848,228.7657,2,1,3,1,0,1,0,256.9032,204.2554,1.1735,-52.6478,0,
124,1,6,1,331,0,315.9509,345.0095,49.2889,0,0,0,3,0,0,0,49.2889,51.3886,0.72219,2.0998,40,
124,1,6,1,332,1,49.7089,18.4318,196.6558,3,2,1,2,0,1,0,18.4318,62.4862,0.97205,44.0544,0,
124,1,6,1,333,1,108.3529,316.4577,256.6174,2,1,3,2,1,0,0,316.4577,331.7323,0.54156,15.2746,20,
124,1,6,1,334,1,348.0766,49.1223,287.0703,1,2,3,1,1,0,0,348.0766,337.2188,1.2013,-10.8578,30,
124,1,6,1,335,0,317.7201,255.9044,346.3804,0,0,0,2,0,0,0,255.9044,344.0559,0.94438,88.1516,0,
124,1,6,1,336,0,135.7551,227.0511,289.4652,0,0,0,3,0,0,0,289.4652,135.837,0.78461,-153.6282,0,
124,1,6,1,337,1,108.0557,258.5258,345.1416,3,2,1,3,1,0,0,345.1416,350.4208,0.59723,5.2792,30,
124,1,6,1,338,0,349.3055,317.223,286.933,0,0,0,1,0,0,0,349.3055,334.5005,1.4028,-14.805,20,
124,1,6,1,339,1,289.2184,139.4593,48.4279,2,1,3,2,1,0,0,139.4593,122.5155,1.007,-16.9438,20,
124,1,6,1,340,1,107.1287,259.3308,167.4032,3,1,2,3,1,0,0,167.4032,186.7512,0.58283,19.348,20,
124,1,6,1,341,0,259.2239,106.175,47.5414,0,0,0,2,0,0,0,106.175,124.2827,0.91663,18.1077,20,
124,1,6,1,342,0,286.65,258.7524,48.9783,0,0,0,3,0,0,0,48.9783,86.3332,1.111,37.355,0,
124,1,6,1,343,0,46.7631,288.5474,17.9435,0,0,0,3,0,0,0,17.9435,47.5412,0.93057,29.5977,10,
124,1,6,1,344,1,136.7238,19.2851,166.4328,2,1,3,2,1,0,0,19.2851,15.7767,0.56941,-3.5084,30,
124,1,6,1,345,1,169.0589,257.2943,108.3798,1,3,2,3,0,1,0,108.3798,107.938,1.0834,-0.4418,40,
124,1,6,1,346,1,255.9856,166.1645,286.676,3,1,2,2,0,0,1,166.1645,233.9971,1.354,67.8326,0,
124,1,6,1,347,1,319.7687,198.8048,165.2789,2,3,1,2,1,0,0,198.8048,184.3213,0.31241,-14.4835,20,
124,1,6,1,348,1,109.3766,17.0994,229.6522,3,1,2,3,1,0,0,229.6522,229.6757,0.70148,0.023536,40,
124,1,6,1,349,0,199.938,258.8847,318.5844,0,0,0,1,0,0,0,199.938,216.5245,0.91662,16.5865,20,
124,1,6,1,350,1,347.053,318.8349,48.9335,1,2,3,3,0,0,1,48.9335,120.2104,1.0832,71.2769,0,
124,1,6,1,351,1,195.9885,47.393,79.4445,3,2,1,1,0,0,1,195.9885,199.8691,1.0484,3.8806,30,
124,1,6,1,352,1,167.5783,45.0642,79.143,2,3,1,3,0,1,0,79.143,147.977,1.1736,68.8341,0,
124,1,6,1,353,1,258.7937,135.4168,197.5637,1,2,3,1,1,0,0,258.7937,242.1861,0.47909,-16.6076,20,
124,1,6,1,354,0,135.6245,75.2559,258.1976,0,0,0,1,0,0,0,135.6245,125.4473,0.80559,-10.1772,30,
124,1,6,1,355,1,18.7479,107.9057,169.7624,2,3,1,2,1,0,0,107.9057,121.4567,0.58342,13.5509,20,
124,1,6,1,356,0,318.0068,49.3424,199.0784,0,0,0,2,0,0,0,49.3424,69.2468,0.81935,19.9044,20,
124,1,6,1,357,1,347.3046,136.755,108.0261,3,2,1,3,1,0,0,108.0261,121.724,0.65281,13.6979,20,
124,1,6,1,358,1,137.5036,257.6435,105.0708,3,2,1,3,1,0,0,105.0708,127.0009,0.67358,21.93,10,
124,1,6,1,359,0,15.3835,46.5001,105.5262,0,0,0,2,0,0,0,46.5001,56.5526,0.4722,10.0525,30,
124,1,6,1,360,1,137.304,167.061,199.7356,1,2,3,2,0,1,0,167.061,152.847,1.007,-14.214,20,
124,1,7,2,361,1,198.5388,255.7908,109.8841,1,2,3,3,0,0,1,109.8841,111.611,1.1319,1.7269,40,
124,1,7,2,362,1,228.3049,318.7755,107.5883,3,2,1,3,1,0,0,107.5883,95.9107,0.43747,-11.6776,30,
124,1,7,2,363,1,227.5244,48.3865,319.0119,1,2,3,1,1,0,0,227.5244,227.5091,0.61812,-0.015366,40,
124,1,7,2,364,1,47.8729,198.636,229.3965,3,1,2,1,0,1,0,47.8729,NaN,100000,999,0,
124,1,7,2,365,0,226.3707,75.4554,168.3297,0,0,0,2,0,0,0,75.4554,139.1347,0.84031,63.6793,0,
124,1,7,2,366,1,255.7149,196.3639,49.8544,3,1,2,3,1,0,0,49.8544,233.0327,0.54849,-176.8217,0,
124,1,7,2,367,1,225.4717,199.0995,316.8737,3,2,1,3,1,0,0,316.8737,4.0977,0.33339,47.224,0,
124,1,7,2,368,0,165.0584,108.9805,255.9107,0,0,0,1,0,0,0,165.0584,154.8251,0.65938,-10.2334,30,
124,1,7,2,369,1,18.1968,49.1557,318.5436,3,1,2,3,1,0,0,318.5436,309.5881,0.51378,-8.9555,30,
124,1,7,2,370,0,15.8828,135.3205,228.4285,0,0,0,2,0,0,0,135.3205,137.9206,0.63879,2.6001,40,
124,1,7,2,371,1,227.3627,15.6079,166.3986,1,2,3,1,1,0,0,227.3627,220.695,0.50694,-6.6677,30,
124,1,7,2,372,0,75.834,287.2981,199.5892,0,0,0,3,0,0,0,199.5892,220.0507,2.0971,20.4615,20,
124,1,7,2,373,1,165.477,288.9474,18.5358,1,2,3,3,0,0,1,18.5358,188.6943,0.9305,170.1585,0,
124,1,7,2,374,0,229.7738,195.9716,257.3334,0,0,0,2,0,0,0,195.9716,192.7899,0.93748,-3.1817,30,
124,1,7,2,375,0,197.6767,107.8332,75.5793,0,0,0,1,0,0,0,197.6767,181.7974,0.65963,-15.8793,20,
124,1,7,2,376,0,199.0995,107.7721,288.9407,0,0,0,3,0,0,0,288.9407,216.0072,0.84026,-72.9335,0,
124,1,7,2,377,1,167.3544,108.1335,136.0414,2,3,1,1,0,0,1,167.3544,132.4448,0.91664,-34.9096,0,
124,1,7,2,378,1,136.2911,47.1604,165.1779,2,1,3,2,1,0,0,47.1604,16.8592,0.86117,-30.3012,0,
124,1,7,2,379,1,167.2274,15.1121,78.8827,1,2,3,1,1,0,0,167.2274,144.8026,0.42348,-22.4248,10,
124,1,7,2,380,0,347.0676,316.6174,256.7231,0,0,0,3,0,0,0,256.7231,163.5995,0.99306,-93.1236,0,
124,1,7,2,381,1,139.2648,79.7287,225.5912,1,2,3,1,1,0,0,139.2648,132.4613,0.89568,-6.8035,30,
124,1,7,2,382,1,46.9562,17.8105,349.7842,2,3,1,3,0,1,0,349.7842,NaN,100000,999,0,
124,1,7,2,383,1,349.3938,16.6495,45.9701,2,3,1,2,1,0,0,16.6495,27.4345,0.89585,10.785,30,
124,1,7,2,384,0,345.4379,106.2488,16.3081,0,0,0,1,0,0,0,345.4379,345.5335,1.1944,0.095629,40,
124,1,7,2,385,1,166.3045,197.6022,15.1703,3,2,1,2,0,1,0,197.6022,NaN,100000,999,0,
124,1,7,2,386,1,196.0469,228.681,257.0305,1,3,2,1,1,0,0,196.0469,180.7939,0.43752,-15.253,20,
124,1,7,2,387,1,319.7509,288.9214,105.3713,3,1,2,3,1,0,0,105.3713,100.1118,0.35412,-5.2595,30,
124,1,7,2,388,0,135.5174,286.1066,229.2508,0,0,0,3,0,0,0,229.2508,206.2508,0.6389,-23.0001,10,
124,1,7,2,389,1,195.4797,48.2247,257.4806,2,3,1,2,1,0,0,48.2247,37.9477,0.59727,-10.277,30,
124,1,7,2,390,1,319.877,258.4904,166.2298,1,2,3,1,1,0,0,319.877,148.165,0.736,-171.712,0,
124,1,7,2,391,0,196.8362,165.0846,46.1772,0,0,0,2,0,0,0,165.0846,172.2779,0.85467,7.1933,30,
124,1,7,2,392,0,78.4084,45.9453,197.3613,0,0,0,3,0,0,0,197.3613,225.8502,1.3402,28.489,10,
124,1,7,2,393,1,348.2589,259.4634,197.2511,1,3,2,1,1,0,0,348.2589,8.0666,1.2986,19.8076,20,
124,1,7,2,394,0,287.5291,227.399,348.5527,0,0,0,3,0,0,0,348.5527,189.534,3.3332,-159.0188,0,
124,1,7,2,395,1,347.9773,318.0348,108.2215,2,3,1,2,1,0,0,318.0348,345.9302,0.72904,27.8954,10,
124,1,7,2,396,1,48.7538,19.8263,169.3337,3,2,1,2,0,1,0,19.8263,NaN,100000,999,0,
124,1,7,2,397,1,345.4162,45.9876,199.484,1,2,3,1,1,0,0,345.4162,331.0892,0.72913,-14.327,20,
124,1,7,2,398,0,77.6311,257.6825,318.5624,0,0,0,2,0,0,0,257.6825,254.1009,2.4298,-3.5817,30,
124,1,7,2,399,1,106.4033,169.3439,319.0106,2,3,1,1,0,0,1,106.4033,117.5482,0.83328,11.1449,30,
124,1,7,2,400,1,166.8531,318.2446,137.8389,3,2,1,3,1,0,0,137.8389,156.6592,0.7985,18.8203,20,
124,1,7,2,401,1,109.0131,46.8789,195.2394,2,1,3,2,1,0,0,46.8789,26.7471,1.0346,-20.1318,20,
124,1,7,2,402,1,289.222,165.6705,19.4065,3,2,1,1,0,0,1,289.222,340.9076,1.5485,51.6856,0,
124,1,7,2,403,1,165.0021,15.0146,79.6285,3,2,1,3,1,0,0,79.6285,68.9221,0.76381,-10.7064,30,
124,1,7,2,404,1,17.9009,107.4646,77.7947,1,3,2,2,0,0,1,107.4646,133.7982,1.1596,26.3335,10,
124,1,7,2,405,1,289.1558,77.0112,137.5159,2,1,3,2,1,0,0,77.0112,96.5409,0.68751,19.5297,20,
124,1,7,2,406,1,256.7734,346.949,137.9254,3,1,2,3,1,0,0,137.9254,175.5153,0.3334,37.5899,0,
124,1,7,2,407,0,347.2501,138.4776,48.5297,0,0,0,2,0,0,0,138.4776,122.2084,0.84726,-16.2693,20,
124,1,7,2,408,0,48.7984,137.736,168.8891,0,0,0,1,0,0,0,48.7984,57.1238,0.80557,8.3254,30,
124,1,7,2,409,0,347.1964,77.6894,255.2459,0,0,0,2,0,0,0,77.6894,72.7183,0.9791,-4.971,30,
124,1,7,2,410,1,319.2934,289.4537,75.7854,2,1,3,1,0,1,0,319.2934,NaN,100000,999,0,
124,1,7,2,411,0,346.4156,258.1117,285.5164,0,0,0,3,0,0,0,285.5164,104.6491,1.4305,179.1327,0,
124,1,7,2,412,0,349.3846,168.8403,78.4254,0,0,0,2,0,0,0,168.8403,149.2071,0.94437,-19.6333,20,
124,1,7,2,413,1,76.3235,259.4508,225.252,1,2,3,2,0,1,0,259.4508,NaN,100000,999,0,
124,1,7,2,414,0,318.9071,109.8242,346.1235,0,0,0,3,0,0,0,346.1235,331.4539,0.63882,-14.6696,20,
124,1,7,2,415,1,345.0028,199.5211,75.7941,1,2,3,3,0,0,1,75.7941,131.6131,0.84028,55.819,0,
124,1,7,2,416,0,347.0965,108.2064,225.63,0,0,0,2,0,0,0,108.2064,124.7367,0.75008,16.5302,20,
124,1,7,2,417,1,256.8705,108.5109,15.9167,2,1,3,2,1,0,0,108.5109,109.835,0.625,1.3241,40,
124,1,7,2,418,1,106.3591,228.5253,48.3932,2,3,1,2,1,0,0,228.5253,217.6674,0.58328,-10.8579,30,
124,1,7,2,419,1,76.4711,285.5173,255.1054,3,1,2,1,0,1,0,76.4711,NaN,100000,999,0,
124,1,7,2,420,1,78.9722,196.8961,319.4619,3,2,1,3,1,0,0,319.4619,211.4921,0.72219,-107.9698,0,
124,1,8,2,421,1,346.1694,138.926,199.3548,1,2,3,2,0,1,0,138.926,NaN,100000,999,0,
124,1,8,2,422,1,108.9719,316.758,286.6712,2,1,3,2,1,0,0,316.758,353.4506,0.6874,36.6926,0,
124,1,8,2,423,0,288.9241,345.9003,316.63,0,0,0,2,0,0,0,345.9003,140.3882,0.8616,154.4879,0,
124,1,8,2,424,1,167.0112,318.2278,48.0535,3,2,1,3,1,0,0,48.0535,19.0833,0.60411,-28.9702,10,
124,1,8,2,425,1,19.1508,107.275,197.0279,3,1,2,1,0,1,0,19.1508,NaN,100000,999,0,
124,1,8,2,426,0,317.7142,287.6453,198.7701,0,0,0,2,0,0,0,287.6453,176.2349,1.1805,-111.4104,0,
124,1,8,2,427,1,166.6075,345.8089,138.7094,3,1,2,3,1,0,0,138.7094,143.856,0.89581,5.1467,30,
124,1,8,2,428,1,257.4661,166.7634,108.0595,1,3,2,2,0,0,1,166.7634,132.2313,1.2569,-34.5321,0,
124,1,8,2,429,0,46.7664,105.9197,317.8253,0,0,0,3,0,0,0,317.8253,35.9132,0.77131,78.0879,0,
124,1,8,2,430,0,316.2826,226.5869,345.6649,0,0,0,2,0,0,0,226.5869,227.3106,1.4305,0.72366,40,
124,1,8,2,431,0,318.8858,136.2459,197.6585,0,0,0,2,0,0,0,136.2459,160.7415,1.1735,24.4956,10,
124,1,8,2,432,0,196.5339,168.3692,15.2808,0,0,0,1,0,0,0,196.5339,173.316,0.86794,-23.2179,10,
124,1,8,2,433,1,255.8013,286.1659,15.8192,1,2,3,1,1,0,0,255.8013,219.9371,0.81939,-35.8642,0,
124,1,8,2,434,1,49.8423,256.4504,195.0787,2,1,3,2,1,0,0,256.4504,250.8877,1.0831,-5.5627,30,
124,1,8,2,435,0,168.1037,255.826,346.6466,0,0,0,1,0,0,0,168.1037,176.6408,0.65968,8.5371,30,
124,1,8,2,436,1,167.0257,319.4432,17.8753,3,1,2,1,0,1,0,167.0257,NaN,100000,999,0,
124,1,8,2,437,0,18.741,228.124,108.6405,0,0,0,2,0,0,0,228.124,239.8213,1.0834,11.6973,30,
124,1,8,2,438,0,317.32,168.8455,256.6747,0,0,0,2,0,0,0,168.8455,205.0795,0.86095,36.234,0,
124,1,8,2,439,0,255.6531,106.225,19.3318,0,0,0,1,0,0,0,255.6531,227.3842,1.0208,-28.2689,10,
124,1,8,2,440,1,259.9968,49.8928,18.8239,1,3,2,1,1,0,0,259.9968,245.0258,0.63886,-14.971,20,
124,1,8,2,441,1,225.2548,346.4091,15.6676,2,3,1,3,0,1,0,15.6676,NaN,100000,999,0,
124,1,8,2,442,0,106.3592,135.8795,348.878,0,0,0,1,0,0,0,106.3592,117.2196,0.8611,10.8604,30,
124,1,8,2,443,0,17.0797,198.9739,349.3836,0,0,0,3,0,0,0,349.3836,320.8288,0.33333,-28.5548,10,
124,1,8,2,444,1,229.0337,77.2781,107.936,3,1,2,3,1,0,0,107.936,72.0077,0.34039,-35.9283,0,
124,1,8,2,445,1,345.4404,139.5373,196.9928,3,2,1,1,0,0,1,345.4404,135.9515,0.93751,150.5111,0,
124,1,8,2,446,1,16.3998,288.0065,256.3468,3,1,2,3,1,0,0,256.3468,224.1897,0.70842,-32.1571,0,
124,1,8,2,447,0,257.2917,136.6432,169.9564,0,0,0,1,0,0,0,257.2917,225.4456,0.93054,-31.8461,0,
124,1,8,2,448,0,346.9137,48.6526,108.7309,0,0,0,2,0,0,0,48.6526,28.4136,0.92354,-20.239,20,
124,1,8,2,449,1,195.6123,315.7137,16.8821,2,3,1,1,0,0,1,195.6123,354.8759,1.0902,159.2637,0,
124,1,8,2,450,0,259.9911,109.775,347.5666,0,0,0,3,0,0,0,347.5666,115.9049,1.0555,128.3382,0,
124,1,8,2,451,1,48.9206,255.8028,195.7729,3,1,2,3,1,0,0,195.7729,220.2705,0.6667,24.4976,10,
124,1,8,2,452,0,229.5021,285.9138,79.6101,0,0,0,1,0,0,0,229.5021,221.553,0.86797,-7.9491,30,
124,1,8,2,453,1,46.9212,109.2804,16.7781,2,1,3,2,1,0,0,109.2804,96.4953,0.57619,-12.7851,20,
124,1,8,2,454,1,285.5753,137.4622,167.1664,1,3,2,1,1,0,0,285.5753,283.5106,1.0556,-2.0647,40,
124,1,8,2,455,1,225.7687,107.1047,345.2205,3,2,1,3,1,0,0,345.2205,348.2609,0.61802,3.0403,30,
124,1,8,2,456,1,259.544,198.8611,345.6215,2,3,1,3,0,1,0,345.6215,NaN,100000,999,0,
124,1,8,2,457,1,259.1287,317.8346,47.8808,3,1,2,3,1,0,0,47.8808,25.3768,0.59026,-22.504,10,
124,1,8,2,458,1,345.2443,139.0659,256.0072,1,3,2,1,1,0,0,345.2443,344.2918,0.33347,-0.95257,40,
124,1,8,2,459,0,75.6716,225.2684,316.0299,0,0,0,2,0,0,0,225.2684,65.3175,0.53452,-159.9509,0,
124,1,8,2,460,0,318.9342,79.1196,16.9142,0,0,0,1,0,0,0,318.9342,302.801,1.0278,-16.1332,20,
124,1,8,2,461,0,137.6481,259.4322,199.0779,0,0,0,3,0,0,0,199.0779,196.0035,0.72238,-3.0744,30,
124,1,8,2,462,0,285.2241,46.6735,79.0129,0,0,0,3,0,0,0,79.0129,133.5043,0.79854,54.4914,0,
124,1,8,2,463,1,257.1099,198.1514,285.1967,3,1,2,3,1,0,0,285.1967,290.9619,0.59714,5.7651,30,
124,1,8,2,464,0,345.5319,225.4823,316.9794,0,0,0,2,0,0,0,225.4823,237.0793,1.0624,11.597,30,
124,1,8,2,465,0,225.1487,349.2081,288.7696,0,0,0,3,0,0,0,288.7696,288.7517,0.72223,-0.017904,40,
124,1,8,2,466,0,139.8569,76.621,16.013,0,0,0,2,0,0,0,76.621,60.6199,0.81941,-16.0011,20,
124,1,8,2,467,0,256.5495,196.6591,345.933,0,0,0,2,0,0,0,196.6591,226.7443,1.3054,30.0852,0,
124,1,8,2,468,1,137.3453,345.5207,76.8608,1,3,2,1,1,0,0,137.3453,145.0656,0.44471,7.7202,30,
124,1,8,2,469,1,198.1184,15.3786,256.4987,1,3,2,1,1,0,0,198.1184,206.5052,0.59028,8.3868,30,
124,1,8,2,470,1,319.5611,197.8195,168.9727,1,2,3,1,1,0,0,319.5611,289.7667,0.38876,-29.7945,10,
124,1,8,2,471,1,287.9795,199.0172,76.1351,1,2,3,1,1,0,0,287.9795,315.4762,1.3193,27.4966,10,
124,1,8,2,472,1,166.389,315.5156,75.9487,1,3,2,1,1,0,0,166.389,185.8708,0.43064,19.4818,20,
124,1,8,2,473,1,196.2629,17.998,166.2065,3,2,1,3,1,0,0,166.2065,172.7376,1.0069,6.5311,30,
124,1,8,2,474,1,319.9973,78.3677,197.7492,2,1,3,3,0,0,1,197.7492,219.2388,1.6041,21.4896,10,
124,1,8,2,475,1,346.695,318.6023,139.507,3,2,1,3,1,0,0,139.507,170.2943,0.67357,30.7873,0,
124,1,8,2,476,0,318.3723,49.6626,259.9424,0,0,0,1,0,0,0,318.3723,318.6073,1.0138,0.23497,40,
124,1,8,2,477,0,49.9161,226.8259,76.3773,0,0,0,3,0,0,0,76.3773,44.1836,1.201,-32.1937,0,
124,1,8,2,478,1,165.5087,227.7993,255.6139,1,3,2,3,0,1,0,255.6139,NaN,100000,999,0,
124,1,8,2,479,0,75.9708,259.7944,19.7697,0,0,0,2,0,0,0,259.7944,254.8873,1.0832,-4.907,30,
124,1,8,2,480,0,347.2661,46.5168,135.6348,0,0,0,1,0,0,0,347.2661,337.421,1.0415,-9.8451,30,
