Subject,Session,Block,Condition,Trial,whetherCued,leftStim,rightStim,midStim,remCueLoc,fogCueLoc,neutralCueLoc,probeCueLoc,probeRem,probeForget,probeNeutral,Target,Estimate,RT,Error,Points
127,1,1,1,1,0,287.0714,346.4163,317.2582,0,0,0,2,0,0,0,346.4163,242.6754,1.9224,-103.741,0,
127,1,1,1,2,1,77.4821,109.3155,47.4095,3,1,2,2,0,0,1,109.3155,237.1431,2.1524,127.8277,0,
127,1,1,1,3,0,136.378,19.2856,287.4521,0,0,0,1,0,0,0,136.378,142.8851,1.3611,6.5071,30,
127,1,1,1,4,0,17.5334,229.8448,285.2795,0,0,0,2,0,0,0,229.8448,54.0538,1.3193,-175.791,0,
127,1,1,1,5,1,75.6675,286.6913,15.4543,1,2,3,1,1,0,0,75.6675,214.5533,0.98615,138.8859,0,
127,1,1,1,6,1,345.3727,317.4004,107.6934,3,2,1,3,1,0,0,107.6934,307.5127,1.0904,-160.1807,0,
127,1,1,1,7,0,76.1593,286.8485,255.0598,0,0,0,1,0,0,0,76.1593,76.5693,2.2221,0.41001,40,
127,1,1,1,8,1,287.4566,196.4329,317.3696,2,3,1,2,1,0,0,196.4329,245.6668,1.5625,49.2339,0,
127,1,1,1,9,1,346.0178,139.8508,318.2169,2,1,3,2,1,0,0,139.8508,137.9699,1.8679,-1.8809,40,
127,1,1,1,10,0,257.6203,46.7574,345.0677,0,0,0,1,0,0,0,257.6203,223.7247,1.479,-33.8955,0,
127,1,1,1,11,0,225.6233,47.6932,319.2589,0,0,0,3,0,0,0,319.2589,345.0471,1.6527,25.7883,10,
127,1,1,1,12,1,139.3846,107.5209,315.536,1,3,2,1,1,0,0,139.3846,139.5692,1.5486,0.18466,40,
127,1,1,1,13,1,107.0121,47.6695,15.1765,3,1,2,3,1,0,0,15.1765,23.105,2.1662,7.9285,30,
127,1,1,1,14,1,18.1195,319.0795,107.1346,1,3,2,1,1,0,0,18.1195,14.7063,3.1386,-3.4132,30,
127,1,1,1,15,0,16.3874,199.0224,287.12,0,0,0,3,0,0,0,287.12,296.5542,1.3818,9.4342,30,
127,1,1,1,16,0,316.6983,16.9788,48.8587,0,0,0,2,0,0,0,16.9788,25.491,1.7915,8.5122,30,
127,1,1,1,17,0,227.0711,108.4017,45.0364,0,0,0,1,0,0,0,227.0711,180,1.3541,-47.0711,0,
127,1,1,1,18,0,286.071,347.316,168.4326,0,0,0,3,0,0,0,168.4326,22.0364,2.0067,-146.3962,0,
127,1,1,1,19,1,346.4225,256.1697,286.331,3,1,2,1,0,1,0,346.4225,317.6562,3.0205,-28.7663,10,
127,1,1,1,20,1,18.2554,198.5158,317.3683,1,3,2,1,1,0,0,18.2554,31.4387,1.618,13.1833,20,
127,1,1,1,21,1,318.663,15.5629,199.6281,2,3,1,1,0,0,1,318.663,298.3367,2.5479,-20.3263,20,
127,1,1,1,22,0,136.2253,165.9054,19.5057,0,0,0,1,0,0,0,136.2253,127.0451,1.9998,-9.1802,30,
127,1,1,1,23,1,319.7979,165.1435,76.0122,2,3,1,2,1,0,0,165.1435,122.1422,2.4859,-43.0014,0,
127,1,1,1,24,1,257.1543,17.3261,289.5957,1,2,3,1,1,0,0,257.1543,231.5788,1.9166,-25.5755,10,
127,1,1,1,25,1,108.6901,285.8536,46.0866,3,1,2,3,1,0,0,46.0866,21.6997,1.9102,-24.3869,10,
127,1,1,1,26,1,107.8387,226.4037,165.7529,1,2,3,2,0,1,0,226.4037,233.9947,1.1527,7.591,30,
127,1,1,1,27,1,255.7951,106.3596,168.9696,2,1,3,3,0,0,1,168.9696,191.7562,1.9027,22.7866,10,
127,1,1,1,28,0,318.2751,47.5127,347.0683,0,0,0,3,0,0,0,347.0683,341.8049,1.0277,-5.2634,30,
127,1,1,1,29,0,195.8783,345.1626,45.6417,0,0,0,3,0,0,0,45.6417,12.1396,1.0486,-33.5021,0,
127,1,1,1,30,1,256.7614,48.3601,108.0015,3,1,2,3,1,0,0,108.0015,302.0198,1.4166,-165.9816,0,
127,1,1,1,31,1,286.3417,16.2914,348.8742,3,1,2,3,1,0,0,348.8742,49.253,0.00013881,60.3788,0,
127,1,1,1,32,1,257.9478,199.3474,167.1908,1,2,3,3,0,0,1,167.1908,173.0265,5.319,5.8358,30,
127,1,1,1,33,0,196.9101,346.9329,16.4652,0,0,0,1,0,0,0,196.9101,203.061,1.9374,6.1509,30,
127,1,1,1,34,0,18.5804,75.1584,49.1692,0,0,0,3,0,0,0,49.1692,33.0557,1.3754,-16.1135,20,
127,1,1,1,35,0,46.635,136.483,199.2592,0,0,0,1,0,0,0,46.635,40.6004,1.9234,-6.0346,30,
127,1,1,1,36,0,78.3246,289.155,258.0589,0,0,0,3,0,0,0,258.0589,266.4797,1.2569,8.4208,30,
127,1,1,1,37,0,48.2252,105.6675,348.9123,0,0,0,2,0,0,0,105.6675,83.5961,0.75691,-22.0714,10,
127,1,1,1,38,1,319.517,226.0124,15.6451,2,1,3,1,0,1,0,319.517,291.7125,1.5838,-27.8046,10,
127,1,1,1,39,0,47.2155,139.8823,349.1951,0,0,0,2,0,0,0,139.8823,125.2405,1.7082,-14.6418,20,
127,1,1,1,40,1,345.6875,19.3331,48.8748,1,3,2,1,1,0,0,345.6875,337.9851,1.3541,-7.7023,30,
127,1,1,1,41,1,226.0928,287.6751,78.065,1,3,2,1,1,0,0,226.0928,232.4241,1.368,6.3312,30,
127,1,1,1,42,0,346.4032,46.0331,288.8555,0,0,0,3,0,0,0,288.8555,314.9427,1.6666,26.0872,10,
127,1,1,1,43,1,75.2841,17.2693,316.238,3,2,1,3,1,0,0,316.238,314.94,0.90972,-1.2981,40,
127,1,1,1,44,0,255.5261,229.8806,138.8383,0,0,0,3,0,0,0,138.8383,132.8243,1.5624,-6.014,30,
127,1,1,1,45,1,256.8953,286.0444,315.6872,2,1,3,2,1,0,0,286.0444,314.1877,1.7013,28.1433,10,
127,1,1,1,46,1,167.6029,76.5797,257.4583,3,1,2,1,0,1,0,167.6029,180,0.75,12.3971,20,
127,1,1,1,47,0,319.2323,346.5684,167.7532,0,0,0,1,0,0,0,319.2323,347.6925,2.6596,28.4602,10,
127,1,1,1,48,1,138.7112,48.5086,346.8045,3,2,1,3,1,0,0,346.8045,358.0375,1.6596,11.233,30,
127,1,1,1,49,0,195.7063,167.3475,257.0355,0,0,0,3,0,0,0,257.0355,243.8551,1.4994,-13.1804,20,
127,1,1,1,50,1,227.6533,136.7017,289.4667,3,1,2,3,1,0,0,289.4667,289.9918,0.92354,0.52511,40,
127,1,1,1,51,0,315.475,225.1499,19.5081,0,0,0,2,0,0,0,225.1499,220.0266,1.4581,-5.1233,30,
127,1,1,1,52,0,49.3585,105.8202,259.4522,0,0,0,3,0,0,0,259.4522,267.0114,2.472,7.5592,30,
127,1,1,1,53,1,79.0102,285.4137,196.1232,2,3,1,1,0,0,1,79.0102,79.0146,1.7638,0.0043088,40,
127,1,1,1,54,1,228.0365,106.1137,318.4579,3,1,2,1,0,1,0,228.0365,211.4048,1.5069,-16.6317,20,
127,1,1,1,55,1,79.521,195.5291,107.8717,1,3,2,1,1,0,0,79.521,60.2215,3.1943,-19.2995,20,
127,1,1,1,56,1,286.1437,345.5573,199.8675,1,3,2,1,1,0,0,286.1437,271.5947,1.6105,-14.5489,20,
127,1,1,1,57,0,75.3066,15.9122,226.3758,0,0,0,3,0,0,0,226.3758,227.8701,1.1874,1.4943,40,
127,1,1,1,58,1,166.9052,48.3469,105.6296,1,3,2,1,1,0,0,166.9052,138.9852,1.5207,-27.9199,10,
127,1,1,1,59,1,228.0471,48.7978,257.9223,1,2,3,3,0,0,1,257.9223,226.7538,1.3889,-31.1685,0,
127,1,1,1,60,1,225.4389,168.3154,256.9401,1,3,2,2,0,0,1,168.3154,73.3598,1.7707,-94.9557,0,
127,1,2,1,61,1,256.9107,285.1746,319.9746,3,2,1,3,1,0,0,319.9746,321.8215,1.2502,1.8468,40,
127,1,2,1,62,1,15.8562,287.8778,135.3389,2,3,1,2,1,0,0,287.8778,347.8489,1.1521,59.9711,0,
127,1,2,1,63,0,228.639,256.1031,196.2815,0,0,0,1,0,0,0,228.639,231.153,1.2984,2.5139,40,
127,1,2,1,64,0,46.4962,77.7039,318.1056,0,0,0,1,0,0,0,46.4962,44.6763,1.4373,-1.8199,40,
127,1,2,1,65,1,78.94,109.2935,166.4994,3,1,2,2,0,0,1,109.2935,131.1852,1.2707,21.8917,10,
127,1,2,1,66,1,199.8888,108.5059,135.608,2,1,3,2,1,0,0,108.5059,102.0803,1.611,-6.4256,30,
127,1,2,1,67,1,285.738,349.4779,106.3069,3,1,2,1,0,1,0,285.738,273.1824,1.6874,-12.5556,20,
127,1,2,1,68,1,136.8485,47.6631,228.075,3,2,1,3,1,0,0,228.075,226.0108,1.0346,-2.0643,40,
127,1,2,1,69,1,47.0698,317.8421,198.8121,3,2,1,3,1,0,0,198.8121,227.7875,1.4515,28.9753,10,
127,1,2,1,70,0,139.0454,107.1654,317.5059,0,0,0,1,0,0,0,139.0454,130.7907,1.4026,-8.2547,30,
127,1,2,1,71,1,139.6676,287.9502,169.7001,3,2,1,2,0,1,0,287.9502,292.7151,2.7221,4.7649,30,
127,1,2,1,72,0,289.7322,196.623,106.0005,0,0,0,3,0,0,0,106.0005,114.6353,1.3749,8.6348,30,
127,1,2,1,73,1,316.9787,136.9634,19.9383,2,3,1,2,1,0,0,136.9634,126.5397,1.3403,-10.4237,30,
127,1,2,1,74,1,166.5791,136.9597,79.5015,3,2,1,3,1,0,0,79.5015,81.2619,1.361,1.7604,40,
127,1,2,1,75,0,256.796,196.1069,346.1351,0,0,0,3,0,0,0,346.1351,344.0892,1.2429,-2.0459,40,
127,1,2,1,76,1,137.4006,76.6733,258.7231,1,2,3,3,0,0,1,258.7231,267.6857,1.104,8.9626,30,
127,1,2,1,77,1,285.6611,346.5185,318.374,2,3,1,2,1,0,0,346.5185,347.0269,1.1319,0.50834,40,
127,1,2,1,78,1,19.7326,105.3768,226.6907,2,3,1,2,1,0,0,105.3768,109.2009,1.2082,3.8241,30,
127,1,2,1,79,0,288.0148,136.7981,258.1161,0,0,0,2,0,0,0,136.7981,120.3335,1.5277,-16.4646,20,
127,1,2,1,80,1,259.1931,139.6605,109.9335,3,2,1,3,1,0,0,109.9335,111.1359,2.2151,1.2024,40,
127,1,2,1,81,1,285.6762,316.6002,136.025,2,1,3,2,1,0,0,316.6002,305.0239,2.1735,-11.5763,30,
127,1,2,1,82,1,226.6178,17.7419,46.0516,1,2,3,1,1,0,0,226.6178,207.5211,2.0069,-19.0967,20,
127,1,2,1,83,1,18.2104,48.8582,196.2983,2,1,3,2,1,0,0,48.8582,214.9498,2.4096,166.0916,0,
127,1,2,1,84,1,348.7135,316.6747,18.0812,2,1,3,2,1,0,0,316.6747,342.947,1.0694,26.2723,10,
127,1,2,1,85,1,195.41,106.7435,319.624,2,1,3,2,1,0,0,106.7435,14.1141,1.4027,-92.6293,0,
127,1,2,1,86,0,256.0351,45.7769,108.6461,0,0,0,3,0,0,0,108.6461,136.2297,1.7082,27.5836,10,
127,1,2,1,87,1,285.6047,349.5685,19.742,1,2,3,3,0,0,1,19.742,14.8802,2.2151,-4.8618,30,
127,1,2,1,88,1,226.6493,346.2846,285.3699,3,1,2,1,0,1,0,226.6493,262.4719,1.6035,35.8226,0,
127,1,2,1,89,1,107.7524,348.4993,138.5371,1,2,3,1,1,0,0,107.7524,68.6639,1.3749,-39.0885,0,
127,1,2,1,90,1,229.936,256.3422,17.8904,1,3,2,1,1,0,0,229.936,226.0335,1.3193,-3.9025,30,
127,1,2,1,91,0,75.3213,227.1388,15.0997,0,0,0,2,0,0,0,227.1388,218.4905,1.3679,-8.6482,30,
127,1,2,1,92,0,315.6627,16.9353,45.6777,0,0,0,2,0,0,0,16.9353,203.6289,2.1596,-173.3064,0,
127,1,2,1,93,1,49.6723,257.3492,139.1195,2,1,3,2,1,0,0,257.3492,199.6699,1.736,-57.6793,0,
127,1,2,1,94,0,319.1513,77.9719,16.798,0,0,0,3,0,0,0,16.798,31.4388,1.3404,14.6408,20,
127,1,2,1,95,1,288.829,45.6532,139.8973,2,1,3,1,0,1,0,288.829,334.7062,1.5763,45.8771,0,
127,1,2,1,96,1,76.0635,316.6434,288.3041,3,2,1,3,1,0,0,288.3041,297.7285,0.7152,9.4244,30,
127,1,2,1,97,1,49.7079,109.677,197.8332,1,3,2,3,0,1,0,197.8332,192.7423,1.986,-5.0909,30,
127,1,2,1,98,1,345.8697,18.1693,49.0902,1,2,3,1,1,0,0,345.8697,336.2988,1.6805,-9.5709,30,
127,1,2,1,99,1,78.2181,109.7703,318.309,1,2,3,1,1,0,0,78.2181,60.5356,1.4861,-17.6824,20,
127,1,2,1,100,1,257.0166,78.1319,168.2633,2,3,1,2,1,0,0,78.1319,132.8076,1.2152,54.6757,0,
127,1,2,1,101,1,139.41,105.3177,18.1184,1,2,3,1,1,0,0,139.41,122.8452,1.2922,-16.5648,20,
127,1,2,1,102,1,257.55,135.7266,345.4204,1,3,2,2,0,0,1,135.7266,97.7507,2.2012,-37.9759,0,
127,1,2,1,103,1,77.4836,286.6121,348.4732,1,2,3,2,0,1,0,286.6121,293.9645,3.0554,7.3523,30,
127,1,2,1,104,0,228.0668,106.4769,15.236,0,0,0,1,0,0,0,228.0668,213.0331,1.8262,-15.0337,20,
127,1,2,1,105,1,285.0157,226.8816,46.119,3,2,1,3,1,0,0,46.119,24.3592,1.6525,-21.7598,10,
127,1,2,1,106,1,139.4855,169.7094,106.1053,3,2,1,3,1,0,0,106.1053,122.9456,1.4929,16.8403,20,
127,1,2,1,107,1,225.4936,137.1153,259.5723,1,3,2,2,0,0,1,137.1153,143.2667,1.3333,6.1514,30,
127,1,2,1,108,0,45.0063,229.2452,78.767,0,0,0,1,0,0,0,45.0063,51.5885,1.6387,6.5823,30,
127,1,2,1,109,0,16.8814,107.9467,346.7181,0,0,0,3,0,0,0,346.7181,359.1726,1.0416,12.4545,20,
127,1,2,1,110,0,345.0924,47.0058,166.7149,0,0,0,1,0,0,0,345.0924,152.3096,1.0069,167.2171,0,
127,1,2,1,111,1,47.9631,347.4409,106.2311,2,1,3,2,1,0,0,347.4409,351.4738,2.3749,4.0329,30,
127,1,2,1,112,1,105.396,255.3078,138.1494,1,3,2,3,0,1,0,138.1494,140.3221,1.604,2.1727,40,
127,1,2,1,113,1,285.5339,255.1078,18.4081,3,1,2,3,1,0,0,18.4081,2.6454,1.1597,-15.7627,20,
127,1,2,1,114,0,195.96,48.3055,285.425,0,0,0,3,0,0,0,285.425,297.8294,0.58331,12.4045,20,
127,1,2,1,115,1,225.8451,289.0479,138.2621,1,2,3,2,0,1,0,289.0479,312.899,1.6804,23.8511,10,
127,1,2,1,116,1,79.0092,106.1141,229.4233,1,3,2,3,0,1,0,229.4233,227.5383,2.104,-1.885,40,
127,1,2,1,117,0,195.6394,75.5236,316.6583,0,0,0,2,0,0,0,75.5236,76.2438,1.1041,0.72025,40,
127,1,2,1,118,1,289.9796,195.4229,345.076,1,3,2,1,1,0,0,289.9796,275.236,2.0277,-14.7437,20,
127,1,2,1,119,1,225.8681,17.5232,137.6594,2,1,3,2,1,0,0,17.5232,31.1957,1.7708,13.6725,20,
127,1,2,1,120,1,197.0317,258.7324,47.1948,3,1,2,3,1,0,0,47.1948,20.0687,1.2638,-27.1261,10,
127,1,3,2,121,1,317.5243,75.9034,225.1057,1,3,2,1,1,0,0,317.5243,313.7446,2.7077,-3.7797,30,
127,1,3,2,122,1,46.399,315.2456,227.7211,1,3,2,3,0,1,0,227.7211,NaN,100000,999,0,
127,1,3,2,123,1,75.6269,106.2055,227.4119,2,3,1,2,1,0,0,106.2055,110.4071,1.1666,4.2016,30,
127,1,3,2,124,1,198.735,288.9527,49.6563,1,2,3,1,1,0,0,198.735,217.002,1.0624,18.267,20,
127,1,3,2,125,1,109.4916,285.0553,317.4692,3,1,2,2,0,0,1,285.0553,310.5012,1.8609,25.4459,10,
127,1,3,2,126,0,288.1536,138.5422,169.447,0,0,0,1,0,0,0,288.1536,142.242,2.3882,-145.9116,0,
127,1,3,2,127,1,166.1011,287.2335,197.4347,2,1,3,2,1,0,0,287.2335,318.9066,1.0971,31.6732,0,
127,1,3,2,128,0,348.7809,107.2037,196.7507,0,0,0,1,0,0,0,348.7809,332.2031,2.1388,-16.5778,20,
127,1,3,2,129,1,196.3906,139.2176,165.2542,3,1,2,3,1,0,0,165.2542,173.4093,1.6667,8.1551,30,
127,1,3,2,130,1,257.5792,198.603,168.5943,3,2,1,2,0,1,0,198.603,NaN,100000,999,0,
127,1,3,2,131,1,17.7759,286.9452,138.5267,1,2,3,1,1,0,0,17.7759,351.7793,1.2847,-25.9967,10,
127,1,3,2,132,0,109.3803,166.8936,48.5342,0,0,0,1,0,0,0,109.3803,128.9229,1.3958,19.5426,20,
127,1,3,2,133,1,256.8951,77.9393,17.1256,3,2,1,3,1,0,0,17.1256,208.8027,1.9166,-168.3229,0,
127,1,3,2,134,0,17.5023,45.2278,79.2101,0,0,0,2,0,0,0,45.2278,58.7466,0.84719,13.5188,20,
127,1,3,2,135,1,257.8898,165.81,48.5958,1,2,3,1,1,0,0,257.8898,236.7489,1.4721,-21.1409,10,
127,1,3,2,136,0,19.2352,259.9362,289.3686,0,0,0,1,0,0,0,19.2352,25.2349,1.3749,5.9997,30,
127,1,3,2,137,1,48.4297,226.8541,18.545,2,1,3,2,1,0,0,226.8541,221.8867,1.0485,-4.9674,30,
127,1,3,2,138,1,257.7895,226.8174,136.8661,2,1,3,1,0,1,0,257.7895,NaN,100000,999,0,
127,1,3,2,139,0,46.8293,106.9891,137.8621,0,0,0,3,0,0,0,137.8621,115.4293,1.5624,-22.4328,10,
127,1,3,2,140,0,79.6114,319.4855,18.3561,0,0,0,1,0,0,0,79.6114,100.715,1.1388,21.1036,10,
127,1,3,2,141,0,255.5322,49.2921,135.132,0,0,0,3,0,0,0,135.132,136.391,1.5556,1.259,40,
127,1,3,2,142,0,19.5455,348.8795,257.0949,0,0,0,3,0,0,0,257.0949,242.0935,2.5207,-15.0015,20,
127,1,3,2,143,0,106.5908,287.9781,349.5459,0,0,0,2,0,0,0,287.9781,105.4422,1.4582,177.4641,0,
127,1,3,2,144,0,49.2159,349.8787,18.3117,0,0,0,2,0,0,0,349.8787,9.0247,1.4304,19.146,20,
127,1,3,2,145,1,49.3049,316.5693,195.6248,2,3,1,1,0,0,1,49.3049,38.4404,1.6597,-10.8645,30,
127,1,3,2,146,1,345.1476,78.0679,108.66,2,3,1,1,0,0,1,345.1476,350.8167,1.9165,5.6691,30,
127,1,3,2,147,1,349.5292,75.2973,107.6425,1,2,3,1,1,0,0,349.5292,341.1323,1.1388,-8.397,30,
127,1,3,2,148,1,198.1368,168.1189,227.9408,3,1,2,3,1,0,0,227.9408,226.0018,1.8193,-1.939,40,
127,1,3,2,149,1,16.123,47.1592,196.4028,1,2,3,1,1,0,0,16.123,13.2565,2.118,-2.8665,40,
127,1,3,2,150,1,317.7465,347.3653,255.3798,2,3,1,2,1,0,0,347.3653,2.4107,1.243,15.0454,20,
127,1,3,2,151,0,287.6814,16.3147,46.6351,0,0,0,1,0,0,0,287.6814,306.3247,1.486,18.6433,20,
127,1,3,2,152,1,196.77,347.6445,168.4253,2,1,3,2,1,0,0,347.6445,1.0419,2.5484,13.3974,20,
127,1,3,2,153,1,165.6062,45.7563,138.3228,1,3,2,3,0,1,0,138.3228,NaN,100000,999,0,
127,1,3,2,154,1,169.2241,136.9382,198.0717,3,2,1,3,1,0,0,198.0717,43.2187,0.00014152,-154.8529,0,
127,1,3,2,155,1,167.6568,79.7744,288.5573,1,2,3,1,1,0,0,167.6568,174.2255,1.5069,6.5687,30,
127,1,3,2,156,0,287.831,349.7549,139.8118,0,0,0,1,0,0,0,287.831,254.4768,1.3471,-33.3542,0,
127,1,3,2,157,1,319.7166,108.2193,197.1427,1,2,3,1,1,0,0,319.7166,302.3488,1.6457,-17.3677,20,
127,1,3,2,158,0,289.1403,49.6226,79.0526,0,0,0,2,0,0,0,49.6226,308.6825,1.5207,-100.9401,0,
127,1,3,2,159,0,347.4199,317.0356,47.3433,0,0,0,2,0,0,0,317.0356,334.2754,1.5347,17.2397,20,
127,1,3,2,160,1,76.4611,256.6815,49.1736,1,3,2,2,0,0,1,256.6815,267.4971,0.94436,10.8155,30,
127,1,3,2,161,1,257.8941,196.7331,108.2395,3,1,2,1,0,1,0,257.8941,NaN,100000,999,0,
127,1,3,2,162,1,285.9448,107.6032,47.0645,3,2,1,1,0,0,1,285.9448,293.4753,1.6527,7.5304,30,
127,1,3,2,163,1,345.0299,287.128,105.5716,1,3,2,2,0,0,1,287.128,254.3103,1.479,-32.8177,0,
127,1,3,2,164,1,15.6961,318.2418,109.788,1,2,3,1,1,0,0,15.6961,351.996,1.8956,-23.7001,10,
127,1,3,2,165,0,289.1091,346.4081,109.0149,0,0,0,1,0,0,0,289.1091,274.343,1.5,-14.7661,20,
127,1,3,2,166,0,316.8247,18.263,288.9069,0,0,0,1,0,0,0,316.8247,299.7085,1.6804,-17.1162,20,
127,1,3,2,167,1,47.3599,136.2738,195.8771,3,1,2,3,1,0,0,195.8771,210.5378,1.6596,14.6606,20,
127,1,3,2,168,1,76.4362,228.3283,257.5609,1,3,2,1,1,0,0,76.4362,40.3389,1.5134,-36.0973,0,
127,1,3,2,169,0,347.0705,196.6777,286.7365,0,0,0,1,0,0,0,347.0705,354.4134,2.2013,7.343,30,
127,1,3,2,170,1,19.2791,346.3655,167.6856,1,3,2,1,1,0,0,19.2791,9.1833,1.2639,-10.0958,30,
127,1,3,2,171,1,315.9184,258.2116,287.1883,1,3,2,1,1,0,0,315.9184,298.0383,1.1179,-17.8801,20,
127,1,3,2,172,0,167.1623,289.9776,349.7872,0,0,0,3,0,0,0,349.7872,352.0208,1.0069,2.2337,40,
127,1,3,2,173,0,229.7664,107.0669,255.2335,0,0,0,2,0,0,0,107.0669,144.0327,1.6735,36.9658,0,
127,1,3,2,174,1,108.936,197.729,139.2987,2,3,1,2,1,0,0,197.729,169.9895,0.9513,-27.7395,10,
127,1,3,2,175,1,106.7378,258.0613,287.5306,2,3,1,2,1,0,0,258.0613,276.197,1.6944,18.1356,20,
127,1,3,2,176,0,196.349,229.1703,18.1068,0,0,0,1,0,0,0,196.349,200.4684,1.6596,4.1195,30,
127,1,3,2,177,0,349.3658,165.8316,315.7078,0,0,0,2,0,0,0,165.8316,154.9192,1.3403,-10.9124,30,
127,1,3,2,178,1,228.2671,289.0086,49.9255,3,2,1,1,0,0,1,228.2671,215.2081,1.4097,-13.0591,20,
127,1,3,2,179,1,168.2432,136.6456,347.1196,1,2,3,3,0,0,1,347.1196,335.2492,0.85422,-11.8704,30,
127,1,3,2,180,1,106.0025,289.1625,76.7642,3,1,2,3,1,0,0,76.7642,70.553,1.1944,-6.2113,30,
127,1,4,2,181,0,228.6049,318.6733,79.4215,0,0,0,1,0,0,0,228.6049,225.1319,1.5346,-3.473,30,
127,1,4,2,182,0,286.2656,259.2293,45.6298,0,0,0,3,0,0,0,45.6298,42.2771,1.0491,-3.3527,30,
127,1,4,2,183,0,165.2577,229.6358,256.3315,0,0,0,3,0,0,0,256.3315,252.4809,0.95133,-3.8506,30,
127,1,4,2,184,0,136.7397,319.1155,167.3792,0,0,0,1,0,0,0,136.7397,21.7607,1.5207,-114.979,0,
127,1,4,2,185,0,288.2516,47.4424,319.685,0,0,0,2,0,0,0,47.4424,35.3877,1.0138,-12.0547,20,
127,1,4,2,186,1,196.2741,349.2979,137.7858,3,2,1,3,1,0,0,137.7858,133.0192,3.0275,-4.7666,30,
127,1,4,2,187,1,108.637,198.6273,318.2858,1,3,2,1,1,0,0,108.637,116.1721,1.8471,7.5351,30,
127,1,4,2,188,0,49.9765,196.1244,349.7829,0,0,0,2,0,0,0,196.1244,187.4549,1.7499,-8.6695,30,
127,1,4,2,189,0,199.6739,258.0625,19.9765,0,0,0,1,0,0,0,199.6739,203.5861,1.118,3.9122,30,
127,1,4,2,190,0,199.8002,256.949,78.0588,0,0,0,2,0,0,0,256.949,283.7535,1.9443,26.8045,10,
127,1,4,2,191,1,47.086,197.4491,169.6079,2,3,1,2,1,0,0,197.4491,202.0874,1.6665,4.6383,30,
127,1,4,2,192,1,77.1338,109.2667,349.0017,2,1,3,3,0,0,1,349.0017,355.4186,1.8332,6.4168,30,
127,1,4,2,193,1,285.0545,199.2634,256.7046,2,3,1,3,0,1,0,256.7046,NaN,100000,999,0,
127,1,4,2,194,1,225.9454,105.3966,169.5498,3,2,1,1,0,0,1,225.9454,207.0747,1.0971,-18.8707,20,
127,1,4,2,195,1,317.2966,226.2957,18.5181,3,2,1,1,0,0,1,317.2966,293.3813,1.8541,-23.9153,10,
127,1,4,2,196,1,48.0738,165.9802,136.636,3,1,2,3,1,0,0,136.636,140.3955,1.5624,3.7595,30,
127,1,4,2,197,1,226.5901,137.6651,258.4096,3,1,2,3,1,0,0,258.4096,242.5701,1.2637,-15.8395,20,
127,1,4,2,198,0,255.1147,137.9217,45.4383,0,0,0,3,0,0,0,45.4383,37.9575,1.8679,-7.4808,30,
127,1,4,2,199,1,285.9114,199.2057,166.2303,2,3,1,2,1,0,0,199.2057,188.0956,1.6874,-11.1101,30,
127,1,4,2,200,1,196.3005,347.385,167.8405,2,1,3,2,1,0,0,347.385,18.4302,1.3819,31.0451,0,
127,1,4,2,201,0,256.507,317.4324,107.4657,0,0,0,2,0,0,0,317.4324,357.5343,1.9929,40.1019,0,
127,1,4,2,202,1,79.1733,225.3459,345.9504,3,2,1,3,1,0,0,345.9504,4.537,0.9236,18.5866,20,
127,1,4,2,203,0,18.9213,78.7143,258.7128,0,0,0,2,0,0,0,78.7143,79.7978,1.4513,1.0835,40,
127,1,4,2,204,0,286.3449,15.5449,229.7523,0,0,0,2,0,0,0,15.5449,25.2277,1.2916,9.6828,30,
127,1,4,2,205,0,106.7565,166.1209,135.8551,0,0,0,3,0,0,0,135.8551,124.2667,1.7498,-11.5883,30,
127,1,4,2,206,0,16.9342,108.2129,196.5338,0,0,0,3,0,0,0,196.5338,118.6564,1.1596,-77.8774,0,
127,1,4,2,207,0,195.1852,45.8973,315.5917,0,0,0,3,0,0,0,315.5917,300.2083,0.71526,-15.3834,20,
127,1,4,2,208,0,79.8479,196.3291,227.0193,0,0,0,2,0,0,0,196.3291,222.6492,1.5764,26.3201,10,
127,1,4,2,209,0,226.5482,197.6339,316.5503,0,0,0,2,0,0,0,197.6339,176.8168,1.6382,-20.817,20,
127,1,4,2,210,0,45.483,108.7054,259.2724,0,0,0,1,0,0,0,45.483,39.6091,1.6319,-5.8739,30,
127,1,4,2,211,0,139.8505,256.8808,79.0186,0,0,0,3,0,0,0,79.0186,73.6584,1.6597,-5.3603,30,
127,1,4,2,212,1,17.4961,105.2886,257.2137,3,2,1,1,0,0,1,17.4961,1.8674,3.8193,-15.6287,20,
127,1,4,2,213,0,316.3629,138.3955,258.3841,0,0,0,2,0,0,0,138.3955,97.7235,1.5833,-40.672,0,
127,1,4,2,214,0,346.2313,319.3656,17.1645,0,0,0,1,0,0,0,346.2313,327.6118,1.1735,-18.6195,20,
127,1,4,2,215,0,137.9306,18.6335,196.9616,0,0,0,3,0,0,0,196.9616,194.8125,1.8471,-2.1491,40,
127,1,4,2,216,1,138.9297,315.4232,288.8308,2,1,3,1,0,1,0,138.9297,NaN,100000,999,0,
127,1,4,2,217,0,196.7065,256.0836,135.5315,0,0,0,1,0,0,0,196.7065,3.0663,3.8053,166.3599,0,
127,1,4,2,218,0,288.5096,257.7349,168.8463,0,0,0,2,0,0,0,257.7349,239.5033,1.2986,-18.2316,20,
127,1,4,2,219,1,196.8167,318.0194,78.3697,3,1,2,3,1,0,0,78.3697,20.1298,1.8193,-58.2398,0,
127,1,4,2,220,1,137.3665,77.2438,258.5614,2,1,3,2,1,0,0,77.2438,85.782,1.6318,8.5383,30,
127,1,4,2,221,0,348.4219,46.4394,79.6002,0,0,0,2,0,0,0,46.4394,32.1686,1.0624,-14.2708,20,
127,1,4,2,222,1,19.6785,317.0203,79.4287,2,3,1,2,1,0,0,317.0203,1.7443,1.4518,44.724,0,
127,1,4,2,223,0,166.0489,46.9263,109.0035,0,0,0,1,0,0,0,166.0489,154.5228,1.2774,-11.5261,30,
127,1,4,2,224,1,346.7866,49.293,137.2484,2,3,1,2,1,0,0,49.293,59.2504,0.78465,9.9574,30,
127,1,4,2,225,1,348.6896,16.9769,286.0838,3,2,1,3,1,0,0,286.0838,140.3702,3.8123,-145.7136,0,
127,1,4,2,226,0,109.1322,195.4429,225.098,0,0,0,2,0,0,0,195.4429,191.7989,1.7153,-3.6441,30,
127,1,4,2,227,0,139.9312,165.5575,258.1855,0,0,0,1,0,0,0,139.9312,176.4298,1.4443,36.4985,0,
127,1,4,2,228,1,317.4358,18.9999,258.3859,3,2,1,3,1,0,0,258.3859,304.6375,1.0554,46.2516,0,
127,1,4,2,229,1,258.9493,288.3671,317.001,2,1,3,3,0,0,1,317.001,308.8886,1.1458,-8.1124,30,
127,1,4,2,230,0,317.7317,168.0281,227.4347,0,0,0,3,0,0,0,227.4347,216.4553,1.6042,-10.9794,30,
127,1,4,2,231,1,168.1575,109.6083,79.9173,3,2,1,3,1,0,0,79.9173,57.373,1.6804,-22.5443,10,
127,1,4,2,232,0,77.6984,226.7716,45.429,0,0,0,1,0,0,0,77.6984,54.3222,2.2081,-23.3762,10,
127,1,4,2,233,1,107.5025,168.7897,76.467,3,1,2,3,1,0,0,76.467,55.615,1.236,-20.852,20,
127,1,4,2,234,0,76.9008,105.4539,196.1576,0,0,0,3,0,0,0,196.1576,14.919,0.83333,178.7613,0,
127,1,4,2,235,0,18.5948,348.4362,317.7665,0,0,0,2,0,0,0,348.4362,2.8503,1.4165,14.4141,20,
127,1,4,2,236,1,139.0084,47.3832,229.9527,1,2,3,1,1,0,0,139.0084,138.3493,1.9934,-0.6591,40,
127,1,4,2,237,0,77.6999,166.4342,138.4009,0,0,0,2,0,0,0,166.4342,126.7554,2.0346,-39.6788,0,
127,1,4,2,238,1,258.4409,105.2373,48.4207,1,3,2,1,1,0,0,258.4409,208.0131,1.4374,-50.4277,0,
127,1,4,2,239,1,45.428,75.1459,109.036,3,2,1,3,1,0,0,109.036,87.7709,1.5624,-21.2651,10,
127,1,4,2,240,1,197.6236,229.1524,77.5875,1,2,3,1,1,0,0,197.6236,199.8808,1.368,2.2572,40,
127,1,5,2,241,1,256.2433,288.1857,48.4666,1,2,3,1,1,0,0,256.2433,232.6561,1.2638,-23.5872,10,
127,1,5,2,242,1,229.2795,77.2687,136.7731,1,2,3,1,1,0,0,229.2795,238.0448,0.93687,8.7653,30,
127,1,5,2,243,1,168.8506,317.5949,228.0855,2,1,3,1,0,1,0,168.8506,NaN,100000,999,0,
127,1,5,2,244,1,287.0731,169.793,225.9923,2,1,3,1,0,1,0,287.0731,NaN,100000,999,0,
127,1,5,2,245,1,135.2808,46.1323,346.5477,1,3,2,3,0,1,0,346.5477,NaN,100000,999,0,
127,1,5,2,246,1,138.7189,259.855,76.8512,3,2,1,3,1,0,0,76.8512,70.639,1.4165,-6.2123,30,
127,1,5,2,247,0,78.4943,317.0917,135.7616,0,0,0,2,0,0,0,317.0917,317.7991,2.3332,0.70746,40,
127,1,5,2,248,0,256.4233,48.0349,225.2366,0,0,0,3,0,0,0,225.2366,229.1118,1.125,3.8752,30,
127,1,5,2,249,1,346.9761,137.8151,287.8194,1,3,2,2,0,0,1,137.8151,138.9668,1.236,1.1517,40,
127,1,5,2,250,1,225.42,106.7352,75.4424,3,1,2,3,1,0,0,75.4424,48.5974,1.6803,-26.845,10,
127,1,5,2,251,0,227.7055,45.4413,139.8495,0,0,0,3,0,0,0,139.8495,144.5032,1.2846,4.6537,30,
127,1,5,2,252,1,137.0728,285.4694,226.7491,3,1,2,3,1,0,0,226.7491,232.4313,1.9859,5.6822,30,
127,1,5,2,253,1,77.5159,346.524,228.8799,1,3,2,2,0,0,1,346.524,352.0043,1.8818,5.4803,30,
127,1,5,2,254,0,196.9312,256.2699,48.8445,0,0,0,3,0,0,0,48.8445,228.3547,1.4165,179.5102,0,
127,1,5,2,255,0,108.1119,19.0752,289.7851,0,0,0,1,0,0,0,108.1119,119.1697,1.5625,11.0578,30,
127,1,5,2,256,1,318.765,345.3773,285.3699,3,1,2,3,1,0,0,285.3699,301.5844,0.59021,16.2146,20,
127,1,5,2,257,1,228.0365,168.6079,345.3904,3,1,2,3,1,0,0,345.3904,328.2728,1.1319,-17.1176,20,
127,1,5,2,258,0,345.665,258.2463,137.7894,0,0,0,3,0,0,0,137.7894,126.2144,0.90271,-11.575,30,
127,1,5,2,259,1,286.6146,45.107,165.915,2,3,1,2,1,0,0,45.107,22.7241,0.92334,-22.3829,10,
127,1,5,2,260,1,289.0552,77.7105,18.4983,2,1,3,3,0,0,1,18.4983,1.1687,1.4027,-17.3296,20,
127,1,5,2,261,1,259.1546,105.1247,48.3367,2,3,1,2,1,0,0,105.1247,112.7385,1.0625,7.6137,30,
127,1,5,2,262,1,106.611,346.8491,46.0151,1,2,3,1,1,0,0,106.611,117.494,0.83331,10.883,30,
127,1,5,2,263,1,259.893,349.951,45.7319,2,3,1,2,1,0,0,349.951,2.2718,1.4721,12.3208,20,
127,1,5,2,264,1,137.3736,167.7944,228.497,2,3,1,2,1,0,0,167.7944,137.3671,1.3889,-30.4273,0,
127,1,5,2,265,0,45.6067,139.6809,287.6433,0,0,0,1,0,0,0,45.6067,57.9658,1.8332,12.3591,20,
127,1,5,2,266,0,169.7705,286.1747,45.889,0,0,0,3,0,0,0,45.889,48.0427,1.1041,2.1537,40,
127,1,5,2,267,1,107.0576,287.4424,348.9682,1,3,2,1,1,0,0,107.0576,14.7282,1.736,-92.3294,0,
127,1,5,2,268,0,109.5991,315.6935,285.2466,0,0,0,2,0,0,0,315.6935,303.0919,2.4929,-12.6016,20,
127,1,5,2,269,1,287.2006,165.5433,15.4172,1,2,3,3,0,0,1,15.4172,2.4202,1.1459,-12.997,20,
127,1,5,2,270,1,107.7628,319.3575,229.8756,2,3,1,2,1,0,0,319.3575,331.1775,1.9027,11.82,30,
127,1,5,2,271,1,79.8107,319.3022,167.1612,1,3,2,1,1,0,0,79.8107,56.1047,2.0554,-23.706,10,
127,1,5,2,272,0,109.1255,138.3662,316.0583,0,0,0,3,0,0,0,316.0583,27.5228,1.2777,71.4645,0,
127,1,5,2,273,0,289.1676,226.7302,165.2185,0,0,0,2,0,0,0,226.7302,195.0963,1.4096,-31.6339,0,
127,1,5,2,274,1,256.8197,137.1313,109.5597,2,3,1,2,1,0,0,137.1313,108.9329,0.68724,-28.1984,10,
127,1,5,2,275,0,137.0354,108.1389,165.3805,0,0,0,3,0,0,0,165.3805,165.7631,2.1666,0.38259,40,
127,1,5,2,276,0,348.1651,135.9813,75.1298,0,0,0,1,0,0,0,348.1651,2.5075,1.8541,14.3423,20,
127,1,5,2,277,0,286.8251,349.0366,199.7518,0,0,0,2,0,0,0,349.0366,189.8066,1.2499,-159.23,0,
127,1,5,2,278,1,139.9978,76.3875,286.472,2,1,3,1,0,1,0,139.9978,NaN,100000,999,0,
127,1,5,2,279,1,168.5063,255.5029,196.2851,1,2,3,1,1,0,0,168.5063,154.2816,1.5069,-14.2248,20,
127,1,5,2,280,0,347.1003,228.4353,135.7349,0,0,0,3,0,0,0,135.7349,132.8524,3.5899,-2.8825,40,
127,1,5,2,281,1,349.5107,45.3014,229.0041,3,1,2,2,0,0,1,45.3014,43.2313,1.4096,-2.07,40,
127,1,5,2,282,1,15.8093,195.002,49.3108,1,2,3,1,1,0,0,15.8093,34.1804,1.6944,18.3712,20,
127,1,5,2,283,1,196.2648,48.0026,106.0156,2,1,3,2,1,0,0,48.0026,46.5591,1.2569,-1.4435,40,
127,1,5,2,284,1,257.8112,165.6828,46.6809,1,2,3,1,1,0,0,257.8112,228.4502,1.979,-29.361,10,
127,1,5,2,285,1,229.4987,49.289,317.8976,1,3,2,2,0,0,1,49.289,50.3217,1.0069,1.0327,40,
127,1,5,2,286,0,286.7552,15.1272,316.9422,0,0,0,1,0,0,0,286.7552,279.7198,1.2777,-7.0354,30,
127,1,5,2,287,1,257.1479,168.6435,135.9576,3,1,2,2,0,0,1,168.6435,166.0685,2.0971,-2.575,40,
127,1,5,2,288,1,349.5247,17.5784,286.6846,3,1,2,3,1,0,0,286.6846,138.376,1.611,-148.3086,0,
127,1,5,2,289,1,17.4569,259.9958,287.0379,1,3,2,1,1,0,0,17.4569,25.1129,1.729,7.656,30,
127,1,5,2,290,1,288.21,257.6272,225.9407,3,1,2,1,0,1,0,288.21,NaN,100000,999,0,
127,1,5,2,291,0,288.2294,255.9552,348.896,0,0,0,1,0,0,0,288.2294,303.1431,1.1249,14.9138,20,
127,1,5,2,292,1,256.9388,16.2808,349.4833,2,1,3,1,0,1,0,256.9388,NaN,100000,999,0,
127,1,5,2,293,0,347.3348,225.2171,79.8335,0,0,0,3,0,0,0,79.8335,49.4418,1.2915,-30.3918,0,
127,1,5,2,294,1,105.5844,46.103,287.1941,1,3,2,1,1,0,0,105.5844,120.5665,1.8679,14.9821,20,
127,1,5,2,295,1,137.3143,255.7731,195.3876,3,2,1,1,0,0,1,137.3143,140.3487,1.3125,3.0344,30,
127,1,5,2,296,0,229.1057,196.4057,138.2875,0,0,0,1,0,0,0,229.1057,222.6191,1.3819,-6.4866,30,
127,1,5,2,297,0,75.6066,317.2483,229.5127,0,0,0,3,0,0,0,229.5127,229.3074,2.167,-0.20526,40,
127,1,5,2,298,0,19.6414,137.2331,255.9421,0,0,0,2,0,0,0,137.2331,95.6339,1.1388,-41.5993,0,
127,1,5,2,299,0,47.0302,106.8562,75.4938,0,0,0,2,0,0,0,106.8562,88.7267,1.3608,-18.1295,20,
127,1,5,2,300,1,75.7205,258.0065,139.5038,3,1,2,3,1,0,0,139.5038,136.0339,1.7152,-3.4699,30,
127,1,6,2,301,1,105.2406,18.1324,259.6788,2,1,3,2,1,0,0,18.1324,20.4091,1.1459,2.2768,40,
127,1,6,2,302,1,78.0255,229.1271,315.7517,3,1,2,3,1,0,0,315.7517,314.1596,1.6041,-1.5921,40,
127,1,6,2,303,1,138.3233,79.0306,165.3885,3,2,1,2,0,1,0,79.0306,NaN,100000,999,0,
127,1,6,2,304,0,45.2652,17.2082,319.927,0,0,0,2,0,0,0,17.2082,43.4712,1.118,26.263,10,
127,1,6,2,305,0,18.2497,349.4709,198.9519,0,0,0,3,0,0,0,198.9519,305.8862,1.0972,106.9343,0,
127,1,6,2,306,0,258.1843,18.4434,166.8194,0,0,0,3,0,0,0,166.8194,5.7098,1.229,-161.1096,0,
127,1,6,2,307,0,77.0349,107.6492,198.5385,0,0,0,3,0,0,0,198.5385,205.1385,1.479,6.6,30,
127,1,6,2,308,1,346.1035,138.0682,316.2936,2,3,1,2,1,0,0,138.0682,354.2903,0.97225,-143.7779,0,
127,1,6,2,309,1,257.0742,77.7098,18.6719,2,1,3,3,0,0,1,18.6719,352.0603,1.5346,-26.6117,10,
127,1,6,2,310,0,109.7797,136.013,256.4627,0,0,0,3,0,0,0,256.4627,235.7515,1.2638,-20.7112,20,
127,1,6,2,311,1,168.1979,75.0358,287.4843,2,1,3,2,1,0,0,75.0358,59.3107,1.2638,-15.7251,20,
127,1,6,2,312,1,109.9205,77.1815,17.7724,1,3,2,3,0,1,0,17.7724,NaN,100000,999,0,
127,1,6,2,313,0,315.229,287.5061,346.2202,0,0,0,1,0,0,0,315.229,302.0889,2.0624,-13.1401,20,
127,1,6,2,314,0,346.4929,139.3978,227.1971,0,0,0,2,0,0,0,139.3978,139.3724,2.0623,-0.025438,40,
127,1,6,2,315,1,167.584,226.7751,75.9841,2,1,3,2,1,0,0,226.7751,228.6161,1.1874,1.8411,40,
127,1,6,2,316,0,75.5101,198.8835,349.4857,0,0,0,1,0,0,0,75.5101,50.1931,1.7638,-25.317,10,
127,1,6,2,317,1,166.7286,289.5258,48.2676,3,2,1,3,1,0,0,48.2676,49.2848,1.25,1.0172,40,
127,1,6,2,318,1,139.5246,225.319,168.8598,3,1,2,2,0,0,1,225.319,207.8929,1.5832,-17.4261,20,
127,1,6,2,319,1,225.7289,286.8782,348.1383,2,1,3,2,1,0,0,286.8782,316.1433,1.4305,29.2651,10,
127,1,6,2,320,0,77.5861,316.9615,195.6544,0,0,0,3,0,0,0,195.6544,213.6126,1.3261,17.9582,20,
127,1,6,2,321,1,258.7955,135.8433,19.7212,1,3,2,1,1,0,0,258.7955,272.1228,1.3818,13.3274,20,
127,1,6,2,322,1,348.1423,168.9817,137.7992,1,3,2,1,1,0,0,348.1423,356.9336,1.9443,8.7913,30,
127,1,6,2,323,1,77.4509,195.5105,45.4748,1,2,3,1,1,0,0,77.4509,38.2868,1.5346,-39.1641,0,
127,1,6,2,324,0,138.2714,169.3056,287.0603,0,0,0,3,0,0,0,287.0603,298.4552,0.51379,11.3949,30,
127,1,6,2,325,1,257.8162,345.6671,288.7442,3,2,1,3,1,0,0,288.7442,303.4736,0.49999,14.7294,20,
127,1,6,2,326,1,255.0613,79.0096,109.7901,3,1,2,1,0,1,0,255.0613,NaN,100000,999,0,
127,1,6,2,327,1,228.3348,167.1442,139.7221,1,2,3,1,1,0,0,228.3348,220.6613,1.493,-7.6735,30,
127,1,6,2,328,1,226.4191,75.4639,107.9378,1,3,2,1,1,0,0,226.4191,236.828,1.3333,10.4089,30,
127,1,6,2,329,1,227.5197,287.3992,45.5271,2,1,3,1,0,1,0,227.5197,NaN,100000,999,0,
127,1,6,2,330,1,318.0595,77.466,169.1312,3,2,1,3,1,0,0,169.1312,159.7301,1.7915,-9.4011,30,
127,1,6,2,331,1,79.1009,16.1904,315.732,1,2,3,1,1,0,0,79.1009,70.8899,2.0414,-8.2111,30,
127,1,6,2,332,0,255.4044,195.8354,229.2966,0,0,0,3,0,0,0,229.2966,218.4293,1.6457,-10.8673,30,
127,1,6,2,333,0,196.5077,76.1325,317.3386,0,0,0,1,0,0,0,196.5077,178.8092,1.236,-17.6984,20,
127,1,6,2,334,1,77.4234,258.5004,47.5298,3,1,2,3,1,0,0,47.5298,53.4676,1.4027,5.9378,30,
127,1,6,2,335,0,198.6613,317.3588,288.2658,0,0,0,2,0,0,0,317.3588,10.3014,1.1874,52.9427,0,
127,1,6,2,336,1,286.4107,16.9786,258.0328,1,3,2,3,0,1,0,258.0328,NaN,100000,999,0,
127,1,6,2,337,1,16.2922,227.6275,168.6745,2,1,3,2,1,0,0,227.6275,216.6247,1.8401,-11.0028,30,
127,1,6,2,338,1,315.2693,138.9905,198.1076,3,2,1,3,1,0,0,198.1076,219.7018,1.3609,21.5942,10,
127,1,6,2,339,0,138.0669,45.9476,288.8932,0,0,0,1,0,0,0,138.0669,128.9693,1.3194,-9.0976,30,
127,1,6,2,340,1,49.4841,105.2236,15.6382,3,2,1,3,1,0,0,15.6382,20.6618,0.84762,5.0235,30,
127,1,6,2,341,1,318.5475,226.5523,19.8621,2,3,1,3,0,1,0,19.8621,NaN,100000,999,0,
127,1,6,2,342,1,285.4098,139.7793,259.1064,2,3,1,2,1,0,0,139.7793,129.957,1.3681,-9.8222,30,
127,1,6,2,343,1,259.1453,18.2596,106.9859,2,3,1,2,1,0,0,18.2596,141.284,1.0762,123.0244,0,
127,1,6,2,344,1,255.187,45.8105,167.6597,1,2,3,1,1,0,0,255.187,226.4344,1.3819,-28.7526,10,
127,1,6,2,345,1,77.118,109.0195,259.6834,3,2,1,2,0,1,0,109.0195,NaN,100000,999,0,
127,1,6,2,346,1,349.2518,48.0492,107.4906,3,2,1,3,1,0,0,107.4906,345.4933,0.6528,-121.9973,0,
127,1,6,2,347,0,167.8226,199.5104,109.2178,0,0,0,1,0,0,0,167.8226,181.5227,1.6388,13.7001,20,
127,1,6,2,348,0,315.8011,258.5628,106.8594,0,0,0,1,0,0,0,315.8011,302.5522,1.7986,-13.2489,20,
127,1,6,2,349,1,197.0341,106.921,168.2197,2,3,1,2,1,0,0,106.921,107.5954,1.1881,0.67439,40,
127,1,6,2,350,1,286.3734,45.7169,108.0805,1,3,2,3,0,1,0,108.0805,NaN,100000,999,0,
127,1,6,2,351,1,46.2203,286.3124,346.8311,3,1,2,1,0,1,0,46.2203,NaN,100000,999,0,
127,1,6,2,352,0,195.9961,108.3019,316.0905,0,0,0,2,0,0,0,108.3019,117.607,1.5555,9.3051,30,
127,1,6,2,353,1,138.1446,226.1771,48.3632,1,2,3,1,1,0,0,138.1446,125.0583,1.368,-13.0863,20,
127,1,6,2,354,1,17.6241,195.7646,317.5882,2,1,3,1,0,1,0,17.6241,NaN,100000,999,0,
127,1,6,2,355,1,316.2417,257.1996,199.0641,2,3,1,2,1,0,0,257.1996,282.3013,2.2221,25.1017,10,
127,1,6,2,356,1,259.2897,137.1425,196.091,2,1,3,2,1,0,0,137.1425,143.1251,1.486,5.9826,30,
127,1,6,2,357,0,166.3663,195.424,105.8049,0,0,0,2,0,0,0,195.424,222.52,0.88884,27.0961,10,
127,1,6,2,358,0,16.191,106.6507,137.5557,0,0,0,3,0,0,0,137.5557,152.7432,2.1387,15.1875,20,
127,1,6,2,359,1,255.3481,168.2347,45.8832,2,3,1,1,0,0,1,255.3481,234.0976,1.7151,-21.2505,10,
127,1,6,2,360,1,349.7613,18.8101,77.1403,1,2,3,2,0,1,0,18.8101,NaN,100000,999,0,
127,1,7,1,361,0,78.758,288.5614,197.5729,0,0,0,2,0,0,0,288.5614,315.3037,1.0763,26.7423,10,
127,1,7,1,362,0,165.3795,19.3538,287.0857,0,0,0,1,0,0,0,165.3795,191.2131,1.3188,25.8336,10,
127,1,7,1,363,0,18.17,319.7394,227.1615,0,0,0,2,0,0,0,319.7394,4.7923,1.2152,45.0528,0,
127,1,7,1,364,1,258.337,316.5517,229.2987,1,2,3,3,0,0,1,229.2987,249.2184,1.2569,19.9197,20,
127,1,7,1,365,1,46.6888,286.7579,347.5103,1,2,3,1,1,0,0,46.6888,54.1891,1.1873,7.5003,30,
127,1,7,1,366,1,46.8271,199.1594,349.7759,3,2,1,3,1,0,0,349.7759,2.9091,0.93754,13.1332,20,
127,1,7,1,367,1,286.6122,48.8144,319.403,3,1,2,1,0,1,0,286.6122,304.0986,1.6457,17.4864,20,
127,1,7,1,368,1,108.0772,345.3687,46.0464,3,1,2,1,0,1,0,108.0772,118.1463,1.4652,10.069,30,
127,1,7,1,369,0,77.0328,109.783,18.9714,0,0,0,3,0,0,0,18.9714,12.8244,0.88882,-6.147,30,
127,1,7,1,370,1,316.5921,78.757,259.6505,2,3,1,2,1,0,0,78.757,92.9019,0.55553,14.145,20,
127,1,7,1,371,0,45.9656,349.6916,166.254,0,0,0,2,0,0,0,349.6916,6.6832,1.5625,16.9916,20,
127,1,7,1,372,1,348.9296,168.5824,138.6964,2,1,3,2,1,0,0,168.5824,162.6472,1.7847,-5.9351,30,
127,1,7,1,373,1,317.3578,109.9999,196.722,1,2,3,3,0,0,1,196.722,204.9028,2.2429,8.1807,30,
127,1,7,1,374,0,79.323,48.656,348.5653,0,0,0,2,0,0,0,48.656,32.015,1.4165,-16.641,20,
127,1,7,1,375,1,318.3352,228.1543,195.4007,3,1,2,3,1,0,0,195.4007,222.8725,1.2708,27.4718,10,
127,1,7,1,376,0,198.2881,257.8868,108.8149,0,0,0,1,0,0,0,198.2881,182.6891,0.68752,-15.5991,20,
127,1,7,1,377,1,286.3027,317.5847,258.0481,2,1,3,2,1,0,0,317.5847,338.0552,1.306,20.4705,20,
127,1,7,1,378,1,47.5952,259.0765,17.3919,2,3,1,2,1,0,0,259.0765,253.4068,1.1524,-5.6698,30,
127,1,7,1,379,0,259.0088,195.6042,79.3781,0,0,0,3,0,0,0,79.3781,353.5445,1.8263,-85.8335,0,
127,1,7,1,380,0,317.5506,79.5642,227.8688,0,0,0,1,0,0,0,317.5506,318.2935,1.2362,0.74293,40,
127,1,7,1,381,0,198.8312,228.1734,287.695,0,0,0,2,0,0,0,228.1734,206.1805,1.4583,-21.9929,10,
127,1,7,1,382,1,107.2638,346.47,285.0475,2,1,3,3,0,0,1,285.0475,306.8333,1.0207,21.7858,10,
127,1,7,1,383,1,45.6766,289.1367,345.6385,3,2,1,3,1,0,0,345.6385,325.2242,0.75696,-20.4143,20,
127,1,7,1,384,1,318.5241,258.2371,15.7169,1,3,2,1,1,0,0,318.5241,291.4452,1.3958,-27.0789,10,
127,1,7,1,385,1,197.2494,19.2115,259.563,3,2,1,3,1,0,0,259.563,299.9627,0.84022,40.3997,0,
127,1,7,1,386,0,48.4394,225.1708,255.456,0,0,0,3,0,0,0,255.456,299.9627,1.0903,44.5067,0,
127,1,7,1,387,1,15.7147,169.0596,199.703,1,2,3,1,1,0,0,15.7147,3.3337,1.0693,-12.3811,20,
127,1,7,1,388,1,19.2344,167.6591,287.6516,1,3,2,3,0,1,0,287.6516,301.6587,1.0068,14.0071,20,
127,1,7,1,389,0,226.7114,285.7403,136.2667,0,0,0,2,0,0,0,285.7403,233.6479,2.7637,-52.0924,0,
127,1,7,1,390,1,167.9006,228.4305,79.9591,2,3,1,2,1,0,0,228.4305,221.3777,1.1944,-7.0528,30,
127,1,7,1,391,0,255.2002,109.9144,76.0753,0,0,0,3,0,0,0,76.0753,60.4984,1.4305,-15.5769,20,
127,1,7,1,392,0,47.708,315.4445,138.1972,0,0,0,2,0,0,0,315.4445,316.1505,1.9652,0.70595,40,
127,1,7,1,393,0,46.8991,198.3634,225.3755,0,0,0,1,0,0,0,46.8991,29.1112,1.1666,-17.7879,20,
127,1,7,1,394,1,346.2981,316.6206,168.6814,1,3,2,2,0,0,1,316.6206,335.3371,1.4236,18.7164,20,
127,1,7,1,395,1,347.9855,137.8869,289.0835,2,3,1,2,1,0,0,137.8869,132.1417,1.0277,-5.7452,30,
127,1,7,1,396,1,316.1742,166.9182,256.3843,2,3,1,1,0,0,1,316.1742,354.6994,1.5694,38.5252,0,
127,1,7,1,397,0,289.4162,77.3215,167.9222,0,0,0,3,0,0,0,167.9222,165.1366,1.4235,-2.7857,40,
127,1,7,1,398,0,109.1298,167.5498,76.5928,0,0,0,2,0,0,0,167.5498,148.4945,1.111,-19.0553,20,
127,1,7,1,399,1,289.6322,315.7235,108.0892,2,3,1,1,0,0,1,289.6322,289.099,2.9095,-0.53325,40,
127,1,7,1,400,1,197.8453,225.2755,169.006,3,1,2,3,1,0,0,169.006,197.0952,1.2916,28.0892,10,
127,1,7,1,401,0,166.5319,255.5098,136.0771,0,0,0,3,0,0,0,136.0771,129.2674,1.5214,-6.8097,30,
127,1,7,1,402,1,285.418,136.7698,316.3787,1,3,2,1,1,0,0,285.418,289.8894,2.0068,4.4715,30,
127,1,7,1,403,1,106.306,135.1803,16.8407,2,3,1,2,1,0,0,135.1803,110.5317,1.5277,-24.6486,10,
127,1,7,1,404,1,288.3726,136.4303,108.6389,1,2,3,2,0,1,0,136.4303,115.7866,0.90269,-20.6437,20,
127,1,7,1,405,0,46.4722,286.2936,167.7937,0,0,0,2,0,0,0,286.2936,295.6326,1.3402,9.339,30,
127,1,7,1,406,0,166.0557,75.7553,345.4971,0,0,0,2,0,0,0,75.7553,67.8561,0.62495,-7.8992,30,
127,1,7,1,407,1,347.5583,18.6683,226.5817,3,1,2,3,1,0,0,226.5817,236.3356,1.111,9.7539,30,
127,1,7,1,408,1,346.9288,17.7624,109.4584,3,1,2,3,1,0,0,109.4584,127.6928,1.2569,18.2344,20,
127,1,7,1,409,1,78.2257,17.9288,256.6355,1,3,2,2,0,0,1,17.9288,34.7419,1.222,16.8132,20,
127,1,7,1,410,0,109.8218,19.6371,345.8041,0,0,0,2,0,0,0,19.6371,30.0299,1.0833,10.3928,30,
127,1,7,1,411,1,347.8472,17.2507,255.0889,3,2,1,3,1,0,0,255.0889,264.4298,1.1319,9.3409,30,
127,1,7,1,412,0,196.9551,79.4067,165.021,0,0,0,3,0,0,0,165.021,174.5702,1.5555,9.5492,30,
127,1,7,1,413,1,135.2028,199.6214,106.6076,2,3,1,2,1,0,0,199.6214,204.8372,1.1041,5.2158,30,
127,1,7,1,414,0,17.4615,78.3339,196.9238,0,0,0,1,0,0,0,17.4615,17.8881,2.1527,0.42663,40,
127,1,7,1,415,0,137.055,195.328,169.2367,0,0,0,3,0,0,0,169.2367,178.8973,1.2985,9.6605,30,
127,1,7,1,416,0,348.2217,47.6973,169.9804,0,0,0,2,0,0,0,47.6973,45.0663,1.4862,-2.631,40,
127,1,7,1,417,0,257.6572,109.3311,196.5332,0,0,0,3,0,0,0,196.5332,202.0576,1.6944,5.5244,30,
127,1,7,1,418,1,16.6236,47.8898,195.7501,1,3,2,1,1,0,0,16.6236,22.3915,1.8889,5.768,30,
127,1,7,1,419,0,318.2528,107.1674,228.7351,0,0,0,1,0,0,0,318.2528,128.2426,1.993,169.9898,0,
127,1,7,1,420,0,19.5027,169.1659,48.3285,0,0,0,2,0,0,0,169.1659,187.8288,0.97221,18.6629,20,
127,1,8,1,421,1,226.304,78.7519,48.1492,2,1,3,2,1,0,0,78.7519,150.585,1.3471,71.8331,0,
127,1,8,1,422,1,256.6428,195.4441,48.0546,2,3,1,2,1,0,0,195.4441,118.3088,1.0069,-77.1354,0,
127,1,8,1,423,0,108.7307,17.8711,258.1044,0,0,0,1,0,0,0,108.7307,99.9955,1.0555,-8.7352,30,
127,1,8,1,424,1,78.4026,196.1638,288.4127,3,2,1,3,1,0,0,288.4127,300.3706,0.53467,11.958,30,
127,1,8,1,425,0,226.47,137.888,47.1306,0,0,0,3,0,0,0,47.1306,300.3706,1.7916,-106.76,0,
127,1,8,1,426,0,76.2778,135.0077,199.2475,0,0,0,2,0,0,0,135.0077,104.4489,1.0069,-30.5588,0,
127,1,8,1,427,1,168.5644,49.8538,199.5801,1,2,3,2,0,1,0,49.8538,83.9627,1.0207,34.1089,0,
127,1,8,1,428,0,287.9997,227.0563,75.8682,0,0,0,1,0,0,0,287.9997,294.7132,1.6041,6.7135,30,
127,1,8,1,429,1,15.0505,345.5852,77.6427,2,3,1,1,0,0,1,15.0505,343.157,1.9026,-31.8935,0,
127,1,8,1,430,0,48.9779,285.0407,195.1864,0,0,0,2,0,0,0,285.0407,292.0209,1.0972,6.9802,30,
127,1,8,1,431,0,257.8029,225.158,168.1304,0,0,0,2,0,0,0,225.158,229.3706,1.0351,4.2125,30,
127,1,8,1,432,0,196.0075,288.8317,47.6851,0,0,0,3,0,0,0,47.6851,29.6303,1.8813,-18.0547,20,
127,1,8,1,433,1,225.3404,105.7224,49.3905,2,1,3,2,1,0,0,105.7224,136.8654,1.4027,31.143,0,
127,1,8,1,434,1,166.1957,197.3714,285.6374,1,2,3,1,1,0,0,166.1957,166.4342,1.1388,0.23847,40,
127,1,8,1,435,1,135.4172,17.5674,77.6526,3,1,2,1,0,1,0,135.4172,142.4417,1.2708,7.0245,30,
127,1,8,1,436,1,285.2231,345.9319,166.9805,2,1,3,2,1,0,0,345.9319,348.2845,1.486,2.3526,40,
127,1,8,1,437,0,16.8962,75.3435,349.3672,0,0,0,1,0,0,0,16.8962,328.4534,1.6318,-48.4429,0,
127,1,8,1,438,1,15.1721,289.9186,196.2135,2,3,1,2,1,0,0,289.9186,294.627,1.8129,4.7084,30,
127,1,8,1,439,1,319.8278,75.5696,166.196,2,3,1,2,1,0,0,75.5696,235.7995,0.97914,160.2299,0,
127,1,8,1,440,1,197.5719,167.5511,135.4648,3,1,2,3,1,0,0,135.4648,138.2017,1.8124,2.7369,40,
127,1,8,1,441,0,45.3953,319.0906,105.9104,0,0,0,1,0,0,0,45.3953,18.7325,2.2428,-26.6628,10,
127,1,8,1,442,1,319.342,168.6703,47.0774,2,1,3,2,1,0,0,168.6703,141.4799,1.4512,-27.1904,10,
127,1,8,1,443,0,258.5316,139.93,286.966,0,0,0,2,0,0,0,139.93,139.2972,1.1181,-0.63282,40,
127,1,8,1,444,0,167.1507,315.1299,348.2055,0,0,0,3,0,0,0,348.2055,329.8318,1.1041,-18.3737,20,
127,1,8,1,445,0,17.6886,166.8157,287.5425,0,0,0,1,0,0,0,17.6886,3.445,1.0694,-14.2436,20,
127,1,8,1,446,0,228.3161,198.3205,288.1442,0,0,0,2,0,0,0,198.3205,188.7783,1.7985,-9.5422,30,
127,1,8,1,447,0,258.0228,18.9338,199.3157,0,0,0,1,0,0,0,258.0228,221.1708,1.0902,-36.852,0,
127,1,8,1,448,1,348.14,256.8919,76.6527,3,2,1,3,1,0,0,76.6527,78.0124,2.0484,1.3598,40,
127,1,8,1,449,1,139.0933,228.978,346.62,1,3,2,1,1,0,0,139.0933,150.6163,0.97217,11.523,30,
127,1,8,1,450,1,255.2025,18.1705,108.552,1,2,3,1,1,0,0,255.2025,229.0415,1.7638,-26.161,10,
127,1,8,1,451,1,289.16,75.8196,19.9135,2,1,3,3,0,0,1,19.9135,1.2465,1.3957,-18.667,20,
127,1,8,1,452,1,198.8126,106.6613,346.2163,3,2,1,1,0,0,1,198.8126,206.911,0.88875,8.0984,30,
127,1,8,1,453,0,46.0965,139.9109,109.9009,0,0,0,1,0,0,0,46.0965,42.5341,3.2151,-3.5624,30,
127,1,8,1,454,1,75.6897,285.5435,227.9975,2,1,3,3,0,0,1,227.9975,241.9925,1.3542,13.9951,20,
127,1,8,1,455,1,108.4944,138.2541,315.6706,2,3,1,2,1,0,0,138.2541,109.8958,1.1387,-28.3583,10,
127,1,8,1,456,0,108.9134,136.119,255.7875,0,0,0,1,0,0,0,108.9134,123.5205,1.4096,14.607,20,
127,1,8,1,457,0,255.9723,227.2659,196.0472,0,0,0,1,0,0,0,255.9723,114.7369,1.2291,-141.2354,0,
127,1,8,1,458,0,196.2042,76.1146,287.2658,0,0,0,1,0,0,0,196.2042,180.7522,1.007,-15.452,20,
127,1,8,1,459,1,107.4784,45.043,317.7155,2,3,1,2,1,0,0,45.043,58.3671,1.0138,13.3241,20,
127,1,8,1,460,1,106.3129,169.2882,197.9896,3,2,1,3,1,0,0,197.9896,297.8187,2.1388,99.829,0,
127,1,8,1,461,0,16.7763,76.0441,135.9393,0,0,0,3,0,0,0,135.9393,129.2694,3.9788,-6.6699,30,
127,1,8,1,462,1,285.4545,49.643,19.3963,1,2,3,1,1,0,0,285.4545,20.2895,1.5764,94.835,0,
127,1,8,1,463,1,45.2636,226.1667,139.9155,1,2,3,2,0,1,0,226.1667,234.1605,1.5901,7.9938,30,
127,1,8,1,464,0,317.1766,198.5227,48.2553,0,0,0,2,0,0,0,198.5227,185.5649,2.7637,-12.9578,20,
127,1,8,1,465,1,79.9748,15.6678,165.0828,3,2,1,3,1,0,0,165.0828,183.3236,1.5694,18.2407,20,
127,1,8,1,466,1,225.3109,48.5679,199.9872,3,1,2,1,0,1,0,225.3109,214.8494,1.2985,-10.4615,30,
127,1,8,1,467,1,136.7196,107.1811,258.6929,2,1,3,2,1,0,0,107.1811,104.0287,0.8819,-3.1524,30,
127,1,8,1,468,1,227.7215,166.9366,346.9474,3,2,1,1,0,0,1,227.7215,81.5049,1.6178,-146.2166,0,
127,1,8,1,469,0,18.087,198.6764,107.3736,0,0,0,3,0,0,0,107.3736,107.0163,1.8194,-0.35727,40,
127,1,8,1,470,0,226.005,196.3084,45.5274,0,0,0,1,0,0,0,226.005,221.4577,1.2986,-4.5473,30,
127,1,8,1,471,0,318.9747,16.3001,77.0659,0,0,0,2,0,0,0,16.3001,29.3466,1.0347,13.0464,20,
127,1,8,1,472,1,78.0122,136.4952,46.9018,1,3,2,1,1,0,0,78.0122,85.5583,1.1805,7.5462,30,
127,1,8,1,473,1,137.3902,259.8756,15.9266,3,2,1,2,0,1,0,259.8756,273.9171,2.2082,14.0416,20,
127,1,8,1,474,0,77.1429,105.0275,135.1263,0,0,0,2,0,0,0,105.0275,83.3151,0.75686,-21.7124,10,
127,1,8,1,475,1,166.4944,49.2886,349.2883,3,1,2,1,0,1,0,166.4944,178.12,0.72913,11.6256,30,
127,1,8,1,476,0,319.2136,349.4353,17.431,0,0,0,1,0,0,0,319.2136,346.3841,2.7429,27.1705,10,
127,1,8,1,477,1,226.7737,49.5937,79.7992,2,3,1,2,1,0,0,49.5937,53.6336,0.93052,4.0399,30,
127,1,8,1,478,0,139.4832,109.4307,226.6203,0,0,0,2,0,0,0,109.4307,105.2598,1.736,-4.1709,30,
127,1,8,1,479,1,45.5814,225.412,136.0492,2,1,3,2,1,0,0,225.412,226.6064,1.7638,1.1944,40,
127,1,8,1,480,1,345.4831,16.5784,169.5167,3,2,1,3,1,0,0,169.5167,150.5429,1.2574,-18.9738,20,
