Subject,Session,Block,Condition,Trial,whetherCued,leftStim,rightStim,midStim,remCueLoc,fogCueLoc,neutralCueLoc,probeCueLoc,probeRem,probeForget,probeNeutral,Target,Estimate,RT,Error,Points
126,1,1,2,1,1,229.9153,139.5742,166.3293,1,3,2,1,1,0,0,229.9153,222.8324,0.92272,-7.0829,30,
126,1,1,2,2,0,109.9471,228.4929,18.4212,0,0,0,3,0,0,0,18.4212,16.2932,1.2706,-2.128,40,
126,1,1,2,3,0,286.111,106.4437,229.0178,0,0,0,3,0,0,0,229.0178,257.5258,1.5209,28.508,10,
126,1,1,2,4,1,255.9116,199.5661,225.582,3,1,2,3,1,0,0,225.582,230.8535,1.3194,5.2715,30,
126,1,1,2,5,1,227.2607,167.4518,47.3388,2,3,1,3,0,1,0,47.3388,NaN,100000,999,0,
126,1,1,2,6,1,107.3848,199.3416,168.3789,1,3,2,1,1,0,0,107.3848,95.5758,1.3333,-11.809,30,
126,1,1,2,7,0,139.8911,316.2263,346.9636,0,0,0,1,0,0,0,139.8911,133.9521,1.5899,-5.939,30,
126,1,1,2,8,1,15.762,107.5401,228.6266,3,1,2,1,0,1,0,15.762,NaN,100000,999,0,
126,1,1,2,9,0,349.0675,135.9991,287.6157,0,0,0,3,0,0,0,287.6157,309.5215,2.3058,21.9058,10,
126,1,1,2,10,1,49.6421,108.5635,195.4165,3,1,2,3,1,0,0,195.4165,225.3535,1.5624,29.9371,10,
126,1,1,2,11,1,168.8922,16.3243,136.0457,1,2,3,1,1,0,0,168.8922,163.8608,1.2638,-5.0314,30,
126,1,1,2,12,0,79.1118,197.2465,139.7887,0,0,0,2,0,0,0,197.2465,113.6915,7.3471,-83.5551,0,
126,1,1,2,13,1,289.359,48.5646,78.6702,1,3,2,1,1,0,0,289.359,255.1809,1.1666,-34.1781,0,
126,1,1,2,14,0,105.4417,46.0613,287.7619,0,0,0,1,0,0,0,105.4417,254.6754,3.0692,149.2337,0,
126,1,1,2,15,1,346.9755,47.9893,15.055,2,1,3,2,1,0,0,47.9893,64.4137,1.8749,16.4244,20,
126,1,1,2,16,1,348.7249,136.4241,229.6399,3,2,1,1,0,0,1,348.7249,161.2879,3.6872,172.563,0,
126,1,1,2,17,0,18.1573,319.4024,78.7708,0,0,0,2,0,0,0,319.4024,8.4758,1.3124,49.0734,0,
126,1,1,2,18,1,259.6936,166.5505,108.2385,3,2,1,3,1,0,0,108.2385,104.6507,1.5486,-3.5878,30,
126,1,1,2,19,1,315.6047,75.7185,198.6645,1,2,3,1,1,0,0,315.6047,272.9477,1.4096,-42.657,0,
126,1,1,2,20,1,167.7304,135.37,79.1645,1,2,3,3,0,0,1,79.1645,241.4664,4.9996,162.3018,0,
126,1,1,2,21,0,256.2421,286.864,46.543,0,0,0,3,0,0,0,46.543,59.8584,1.7842,13.3154,20,
126,1,1,2,22,0,195.2777,288.8271,49.3042,0,0,0,3,0,0,0,49.3042,62.839,3.2289,13.5347,20,
126,1,1,2,23,1,137.8972,199.6867,226.1931,2,3,1,1,0,0,1,137.8972,228.1191,1.8747,90.2219,0,
126,1,1,2,24,1,76.2097,315.2824,105.2925,3,2,1,3,1,0,0,105.2925,249.5321,1.2638,144.2396,0,
126,1,1,2,25,0,348.5679,135.6662,226.7165,0,0,0,2,0,0,0,135.6662,121.9512,1.3263,-13.715,20,
126,1,1,2,26,1,347.7022,49.633,18.5273,1,2,3,2,0,1,0,49.633,NaN,100000,999,0,
126,1,1,2,27,1,106.9001,227.3196,258.7786,1,3,2,1,1,0,0,106.9001,173.7541,1.4653,66.8541,0,
126,1,1,2,28,0,79.8587,15.0564,317.7267,0,0,0,2,0,0,0,15.0564,170.3208,1.7915,155.2643,0,
126,1,1,2,29,0,79.867,257.5009,167.9477,0,0,0,2,0,0,0,257.5009,254.4612,1.9999,-3.0397,30,
126,1,1,2,30,0,108.4403,195.0117,169.2022,0,0,0,1,0,0,0,108.4403,87.4753,1.5342,-20.965,20,
126,1,1,2,31,1,138.388,226.6755,199.7407,1,2,3,2,0,1,0,226.6755,NaN,100000,999,0,
126,1,1,2,32,0,109.4508,136.5192,16.3219,0,0,0,1,0,0,0,109.4508,108.9672,1.4374,-0.48358,40,
126,1,1,2,33,0,289.0572,227.1966,139.439,0,0,0,1,0,0,0,289.0572,256.8162,1.4309,-32.2409,0,
126,1,1,2,34,1,138.5903,256.1497,16.5695,3,1,2,3,1,0,0,16.5695,164.3531,2.3818,147.7836,0,
126,1,1,2,35,0,138.8004,165.365,257.1151,0,0,0,2,0,0,0,165.365,149.9629,1.4165,-15.4021,20,
126,1,1,2,36,0,139.4616,16.8498,195.012,0,0,0,1,0,0,0,139.4616,261.5519,1.5554,122.0903,0,
126,1,1,2,37,1,169.3515,315.536,79.7962,2,3,1,2,1,0,0,315.536,303.4677,1.9997,-12.0683,20,
126,1,1,2,38,0,256.0849,198.4337,107.3324,0,0,0,2,0,0,0,198.4337,313.1138,1.5693,114.6801,0,
126,1,1,2,39,0,107.8822,169.9506,17.8448,0,0,0,1,0,0,0,107.8822,132.3923,1.7082,24.5101,10,
126,1,1,2,40,1,349.8167,167.8527,46.0245,3,2,1,3,1,0,0,46.0245,26.1417,1.8193,-19.8828,20,
126,1,1,2,41,1,47.8521,136.6171,16.3421,1,2,3,1,1,0,0,47.8521,156.4524,1.2777,108.6004,0,
126,1,1,2,42,1,47.8287,106.8849,165.6471,2,3,1,2,1,0,0,106.8849,37.0106,3.2567,-69.8744,0,
126,1,1,2,43,1,16.5379,138.7042,198.9197,2,1,3,3,0,0,1,198.9197,21.6363,1.6459,-177.2834,0,
126,1,1,2,44,0,167.3882,45.1566,79.7889,0,0,0,2,0,0,0,45.1566,40.9657,1.4444,-4.191,30,
126,1,1,2,45,1,166.715,318.7652,45.6566,3,1,2,3,1,0,0,45.6566,37.1056,1.493,-8.551,30,
126,1,1,2,46,0,46.7815,346.0304,167.016,0,0,0,3,0,0,0,167.016,166.0605,2.5692,-0.95548,40,
126,1,1,2,47,1,197.9949,255.8565,19.2151,1,3,2,1,1,0,0,197.9949,198.1864,1.4166,0.19152,40,
126,1,1,2,48,0,196.361,76.7421,286.8366,0,0,0,1,0,0,0,196.361,182.1702,1.6805,-14.1908,20,
126,1,1,2,49,1,315.5852,77.7683,256.8453,3,2,1,3,1,0,0,256.8453,235.7617,2.2641,-21.0837,10,
126,1,1,2,50,0,349.3593,319.5299,106.5845,0,0,0,1,0,0,0,349.3593,203.843,2.2706,-145.5163,0,
126,1,1,2,51,0,257.1482,167.5171,226.0014,0,0,0,3,0,0,0,226.0014,237.753,1.5068,11.7516,30,
126,1,1,2,52,1,49.7252,138.7815,167.8803,1,3,2,1,1,0,0,49.7252,210.0278,0.95128,160.3026,0,
126,1,1,2,53,1,138.703,258.7566,348.6761,2,3,1,2,1,0,0,258.7566,308.5443,1.5276,49.7877,0,
126,1,1,2,54,1,225.2549,166.0069,315.7219,3,2,1,3,1,0,0,315.7219,341.9543,1.8749,26.2324,10,
126,1,1,2,55,0,349.8703,75.7417,316.7807,0,0,0,3,0,0,0,316.7807,319.8665,1.2153,3.0857,30,
126,1,1,2,56,1,258.2697,18.343,107.1706,1,2,3,2,0,1,0,18.343,NaN,100000,999,0,
126,1,1,2,57,0,196.8291,48.6602,287.8443,0,0,0,1,0,0,0,196.8291,197.8544,1.7985,1.0253,40,
126,1,1,2,58,1,166.3326,106.8169,288.8726,3,2,1,2,0,1,0,106.8169,NaN,100000,999,0,
126,1,1,2,59,1,196.759,106.0746,79.9807,3,2,1,3,1,0,0,79.9807,121.0182,1.7499,41.0375,0,
126,1,1,2,60,1,197.1239,108.6544,318.1647,3,1,2,3,1,0,0,318.1647,309.4172,1.4304,-8.7475,30,
126,1,2,2,61,0,77.2782,346.6859,49.0251,0,0,0,1,0,0,0,77.2782,168.0132,2.0211,90.735,0,
126,1,2,2,62,0,289.9565,49.0527,166.2399,0,0,0,1,0,0,0,289.9565,117.3734,1.1667,-172.5831,0,
126,1,2,2,63,0,45.7687,108.5908,348.0028,0,0,0,1,0,0,0,45.7687,267.0136,1.4722,-138.755,0,
126,1,2,2,64,1,137.2673,76.4367,346.7869,1,3,2,1,1,0,0,137.2673,125.9185,0.97883,-11.3488,30,
126,1,2,2,65,1,285.7859,348.7847,169.5737,1,2,3,3,0,0,1,169.5737,198.365,3.5417,28.7912,10,
126,1,2,2,66,0,259.1505,49.8672,17.8052,0,0,0,1,0,0,0,259.1505,286.0955,2.0766,26.945,10,
126,1,2,2,67,1,348.8809,315.0136,198.0338,1,2,3,3,0,0,1,198.0338,20.7156,2.0487,-177.3182,0,
126,1,2,2,68,1,349.4298,287.9365,258.9064,2,1,3,2,1,0,0,287.9365,288.7902,1.5069,0.85365,40,
126,1,2,2,69,0,168.3637,79.595,137.8087,0,0,0,2,0,0,0,79.595,307.3686,2.5349,-132.2263,0,
126,1,2,2,70,1,168.7004,18.2226,225.495,1,2,3,3,0,0,1,225.495,202.1064,2.0762,-23.3886,10,
126,1,2,2,71,1,79.9711,227.5494,316.0262,2,1,3,2,1,0,0,227.5494,18.19,1.6253,150.6406,0,
126,1,2,2,72,1,166.9771,105.8033,287.8473,2,3,1,2,1,0,0,105.8033,104.2337,2.1454,-1.5696,40,
126,1,2,2,73,1,138.1909,259.4354,168.8243,1,3,2,2,0,0,1,259.4354,238.9951,2.0622,-20.4403,20,
126,1,2,2,74,0,46.1885,319.5981,345.4083,0,0,0,3,0,0,0,345.4083,344.7778,2.3888,-0.63055,40,
126,1,2,2,75,0,348.2019,255.7447,45.4075,0,0,0,3,0,0,0,45.4075,18.0928,1.9026,-27.3147,10,
126,1,2,2,76,1,77.7552,229.2471,107.007,2,1,3,3,0,0,1,107.007,73.9599,2.0073,-33.0471,0,
126,1,2,2,77,0,75.8858,15.5878,107.2936,0,0,0,3,0,0,0,107.2936,100.2231,2.8817,-7.0705,30,
126,1,2,2,78,1,197.9841,75.5394,348.4172,2,3,1,2,1,0,0,75.5394,22.4298,2.0068,-53.1096,0,
126,1,2,2,79,0,108.514,316.4704,168.765,0,0,0,2,0,0,0,316.4704,156.0648,1.7499,-160.4056,0,
126,1,2,2,80,0,287.0232,106.1843,49.7837,0,0,0,3,0,0,0,49.7837,28.4131,2.5276,-21.3706,10,
126,1,2,2,81,1,48.3906,226.3519,168.0683,2,3,1,3,0,1,0,168.0683,NaN,100000,999,0,
126,1,2,2,82,1,287.9476,349.2017,255.2028,1,2,3,1,1,0,0,287.9476,284.8575,1.7568,-3.0901,30,
126,1,2,2,83,0,255.3146,198.2007,229.5244,0,0,0,3,0,0,0,229.5244,225.6412,1.243,-3.8832,30,
126,1,2,2,84,1,345.3032,288.6983,105.1091,2,3,1,2,1,0,0,288.6983,287.9451,2.1179,-0.75316,40,
126,1,2,2,85,0,257.9578,348.7456,107.2512,0,0,0,3,0,0,0,107.2512,115.6086,1.4375,8.3575,30,
126,1,2,2,86,0,17.7179,138.9875,108.3904,0,0,0,2,0,0,0,138.9875,304.7077,1.3263,165.7202,0,
126,1,2,2,87,1,227.3167,78.3171,139.6875,3,2,1,3,1,0,0,139.6875,120.3455,1.4999,-19.3421,20,
126,1,2,2,88,0,48.8867,107.4704,348.1346,0,0,0,3,0,0,0,348.1346,115.1863,3.2152,127.0517,0,
126,1,2,2,89,0,228.3355,318.7745,258.9062,0,0,0,3,0,0,0,258.9062,220.7093,1.2777,-38.1969,0,
126,1,2,2,90,0,135.0398,226.386,347.236,0,0,0,1,0,0,0,135.0398,221.96,2.1249,86.9202,0,
126,1,2,2,91,1,135.4071,17.9829,76.9315,2,1,3,2,1,0,0,17.9829,15.6676,1.9373,-2.3153,40,
126,1,2,2,92,1,258.1024,79.9014,347.5378,3,2,1,3,1,0,0,347.5378,349.7417,2.2363,2.2039,40,
126,1,2,2,93,1,226.6491,77.5809,197.067,3,1,2,3,1,0,0,197.067,8.6961,1.618,171.6291,0,
126,1,2,2,94,0,108.595,77.8332,286.3984,0,0,0,1,0,0,0,108.595,170.5079,1.486,61.913,0,
126,1,2,2,95,0,346.6965,108.7469,76.408,0,0,0,1,0,0,0,346.6965,159.6446,1.118,172.9481,0,
126,1,2,2,96,1,15.5647,48.4251,136.1892,1,3,2,3,0,1,0,136.1892,NaN,100000,999,0,
126,1,2,2,97,1,345.5429,79.3916,166.6421,2,1,3,2,1,0,0,79.3916,42.672,1.0069,-36.7197,0,
126,1,2,2,98,1,255.8199,76.9264,228.1771,2,3,1,2,1,0,0,76.9264,68.9567,0.97893,-7.9697,30,
126,1,2,2,99,1,317.3437,167.4294,17.579,1,2,3,1,1,0,0,317.3437,329.7814,2.229,12.4377,20,
126,1,2,2,100,1,165.1166,225.2037,107.0197,3,2,1,3,1,0,0,107.0197,126.2805,3.4582,19.2608,20,
126,1,2,2,101,1,166.2293,258.9669,79.5188,1,2,3,3,0,0,1,79.5188,123.6215,2.9373,44.1027,0,
126,1,2,2,102,1,108.6259,228.9076,289.7606,1,3,2,2,0,0,1,228.9076,243.245,1.5554,14.3373,20,
126,1,2,2,103,1,346.0785,285.0377,136.9742,2,3,1,3,0,1,0,136.9742,NaN,100000,999,0,
126,1,2,2,104,0,315.7542,285.6621,135.5193,0,0,0,3,0,0,0,135.5193,136.4438,1.597,0.92454,40,
126,1,2,2,105,1,166.7073,49.5095,255.5817,1,3,2,1,1,0,0,166.7073,152.2926,1.4928,-14.4148,20,
126,1,2,2,106,1,77.2465,289.3344,318.4683,1,3,2,1,1,0,0,77.2465,121.5067,1.736,44.2602,0,
126,1,2,2,107,1,168.1931,227.031,315.4548,2,1,3,2,1,0,0,227.031,228.1965,1.8194,1.1655,40,
126,1,2,2,108,1,345.3369,139.9218,287.3289,3,1,2,1,0,1,0,345.3369,NaN,100000,999,0,
126,1,2,2,109,1,226.1329,346.5332,17.5183,2,3,1,3,0,1,0,17.5183,NaN,100000,999,0,
126,1,2,2,110,1,287.6875,229.4775,347.2696,2,3,1,1,0,0,1,287.6875,252.8089,1.8124,-34.8786,0,
126,1,2,2,111,1,285.724,15.4393,79.4848,2,1,3,3,0,0,1,79.4848,69.1567,1.5416,-10.3281,30,
126,1,2,2,112,1,138.9322,227.9201,197.3496,3,1,2,3,1,0,0,197.3496,233.3916,2.1873,36.042,0,
126,1,2,2,113,0,106.6569,227.0844,196.6791,0,0,0,1,0,0,0,106.6569,112.8657,4.3261,6.2087,30,
126,1,2,2,114,1,165.1397,108.1509,256.1617,1,3,2,2,0,0,1,108.1509,106.4777,1.6455,-1.6732,40,
126,1,2,2,115,0,197.7251,257.3701,46.6586,0,0,0,2,0,0,0,257.3701,255.3385,2.0001,-2.0316,40,
126,1,2,2,116,1,105.4081,78.0033,19.486,2,1,3,2,1,0,0,78.0033,72.5579,1.2501,-5.4454,30,
126,1,2,2,117,0,168.2365,45.7823,195.1387,0,0,0,2,0,0,0,45.7823,30.8301,3.3887,-14.9523,20,
126,1,2,2,118,1,49.7032,229.7362,257.8351,3,2,1,3,1,0,0,257.8351,241.5656,1.4652,-16.2695,20,
126,1,2,2,119,0,17.179,315.9589,199.6525,0,0,0,1,0,0,0,17.179,39.4256,3.958,22.2466,10,
126,1,2,2,120,1,107.5053,135.3488,349.3346,2,1,3,2,1,0,0,135.3488,141.9185,1.2915,6.5697,30,
126,1,3,1,121,1,109.1512,47.4887,18.0874,1,2,3,2,0,1,0,47.4887,45.235,1.5485,-2.2536,40,
126,1,3,1,122,1,196.466,45.0305,136.7542,2,3,1,3,0,1,0,136.7542,308.9507,1.0142,172.1965,0,
126,1,3,1,123,1,226.8211,47.9821,79.1618,3,2,1,3,1,0,0,79.1618,72.002,1.7983,-7.1598,30,
126,1,3,1,124,0,286.8374,45.847,108.6646,0,0,0,3,0,0,0,108.6646,76.4365,1.5627,-32.2281,0,
126,1,3,1,125,1,257.9213,287.8797,17.0623,3,1,2,3,1,0,0,17.0623,26.5884,1.5485,9.5261,30,
126,1,3,1,126,1,196.2491,256.5522,138.0652,2,3,1,2,1,0,0,256.5522,247.6221,1.5766,-8.9302,30,
126,1,3,1,127,0,198.0944,255.3778,75.1956,0,0,0,2,0,0,0,255.3778,281.2576,2.3263,25.8798,10,
126,1,3,1,128,1,198.2218,15.3554,319.7836,2,1,3,2,1,0,0,15.3554,346.7123,1.6874,-28.6431,10,
126,1,3,1,129,0,45.1521,19.9736,257.8575,0,0,0,3,0,0,0,257.8575,242.851,1.4305,-15.0066,20,
126,1,3,1,130,1,106.3918,166.1658,286.0287,2,1,3,1,0,1,0,106.3918,210.648,0.93747,104.2562,0,
126,1,3,1,131,1,105.02,317.1812,256.9224,1,3,2,1,1,0,0,105.02,122.7477,1.1876,17.7277,20,
126,1,3,1,132,1,108.8452,139.1476,78.9631,1,3,2,1,1,0,0,108.8452,96.213,2.4443,-12.6323,20,
126,1,3,1,133,1,169.5376,257.3479,136.3219,3,1,2,3,1,0,0,136.3219,119.2514,2.4023,-17.0704,20,
126,1,3,1,134,1,135.3808,45.1257,105.6681,3,1,2,3,1,0,0,105.6681,131.0362,1.4513,25.368,10,
126,1,3,1,135,1,19.2347,165.8896,289.5632,3,2,1,2,0,1,0,165.8896,36.5368,1.9165,-129.3528,0,
126,1,3,1,136,1,139.2347,46.0654,345.0025,3,1,2,3,1,0,0,345.0025,354.5469,1.4721,9.5444,30,
126,1,3,1,137,1,319.341,345.7308,138.5057,1,2,3,1,1,0,0,319.341,144.8687,1.167,-174.4723,0,
126,1,3,1,138,1,347.6167,45.7742,229.5253,1,2,3,2,0,1,0,45.7742,29.3953,2.5002,-16.3789,20,
126,1,3,1,139,0,257.3585,139.9306,315.4364,0,0,0,2,0,0,0,139.9306,137.5877,1.8957,-2.3429,40,
126,1,3,1,140,0,47.3493,259.2027,317.663,0,0,0,3,0,0,0,317.663,336.9138,2.0697,19.2508,20,
126,1,3,1,141,1,76.8756,108.3719,196.6191,1,2,3,1,1,0,0,76.8756,190.6774,0.81954,113.8018,0,
126,1,3,1,142,0,47.9451,135.7976,347.0085,0,0,0,3,0,0,0,347.0085,15.561,1.5212,28.5526,10,
126,1,3,1,143,1,136.3564,109.1459,77.3642,2,3,1,2,1,0,0,109.1459,41.845,1.1596,-67.3009,0,
126,1,3,1,144,1,166.578,287.0644,345.1286,3,2,1,3,1,0,0,345.1286,344.9909,1.7221,-0.13776,40,
126,1,3,1,145,1,107.6904,79.589,168.806,1,3,2,3,0,1,0,168.806,152.4923,2.0207,-16.3137,20,
126,1,3,1,146,1,199.7692,346.1553,75.2699,2,1,3,1,0,1,0,199.7692,89.5875,1.486,-110.1818,0,
126,1,3,1,147,1,229.9386,349.2997,289.1192,3,2,1,2,0,1,0,349.2997,331.9913,1.6176,-17.3084,20,
126,1,3,1,148,1,258.6033,47.7497,168.0101,1,2,3,2,0,1,0,47.7497,12.7541,1.2219,-34.9956,0,
126,1,3,1,149,1,285.4436,139.8974,18.3859,2,3,1,2,1,0,0,139.8974,149.2173,1.1947,9.3199,30,
126,1,3,1,150,1,108.4401,165.2633,349.0253,2,3,1,3,0,1,0,349.0253,358.4604,1.3471,9.4351,30,
126,1,3,1,151,1,45.6482,195.8073,226.0084,3,1,2,3,1,0,0,226.0084,216.949,1.8332,-9.0595,30,
126,1,3,1,152,0,165.9278,256.5088,286.7465,0,0,0,2,0,0,0,256.5088,266.7837,1.6802,10.275,30,
126,1,3,1,153,0,285.6512,18.7822,45.333,0,0,0,3,0,0,0,45.333,17.4648,1.8537,-27.8682,10,
126,1,3,1,154,0,75.489,196.5968,255.0031,0,0,0,2,0,0,0,196.5968,235.4303,2.2846,38.8335,0,
126,1,3,1,155,0,79.2366,229.2969,285.7657,0,0,0,2,0,0,0,229.2969,278.1858,1.0693,48.8889,0,
126,1,3,1,156,1,347.3895,138.8564,165.749,3,2,1,2,0,1,0,138.8564,294.5083,1.2569,155.6519,0,
126,1,3,1,157,1,227.4972,198.0458,259.0389,1,2,3,1,1,0,0,227.4972,152.8028,2.7914,-74.6944,0,
126,1,3,1,158,1,106.7579,285.7018,346.7992,3,1,2,1,0,1,0,106.7579,141.2487,3.4655,34.4908,0,
126,1,3,1,159,0,315.7723,19.3776,199.4241,0,0,0,2,0,0,0,19.3776,4.6055,1.8818,-14.7721,20,
126,1,3,1,160,0,255.478,47.4961,135.6599,0,0,0,1,0,0,0,255.478,275.0636,1.7985,19.5855,20,
126,1,3,1,161,0,289.7138,317.0043,165.7497,0,0,0,1,0,0,0,289.7138,272.3058,1.6455,-17.408,20,
126,1,3,1,162,0,168.0013,318.7707,45.9312,0,0,0,2,0,0,0,318.7707,327.2009,1.4304,8.4302,30,
126,1,3,1,163,1,226.3371,258.1076,199.1999,1,2,3,1,1,0,0,226.3371,280.5626,1.6177,54.2256,0,
126,1,3,1,164,1,348.383,16.7865,165.9009,1,2,3,1,1,0,0,348.383,194.2346,0.82635,-154.1483,0,
126,1,3,1,165,0,345.8627,195.416,138.2756,0,0,0,2,0,0,0,195.416,201.0941,1.7013,5.6781,30,
126,1,3,1,166,0,257.1162,107.6689,288.8582,0,0,0,2,0,0,0,107.6689,107.9297,4.3191,0.26088,40,
126,1,3,1,167,0,258.743,109.3127,15.3076,0,0,0,2,0,0,0,109.3127,111.6648,1.479,2.3521,40,
126,1,3,1,168,0,286.4974,135.3147,107.97,0,0,0,3,0,0,0,107.97,105.0722,2.0276,-2.8978,40,
126,1,3,1,169,1,255.5346,138.8024,19.8637,1,3,2,1,1,0,0,255.5346,156.4524,0.81946,-99.0822,0,
126,1,3,1,170,0,106.8913,317.7994,346.1802,0,0,0,3,0,0,0,346.1802,352.4875,1.4235,6.3073,30,
126,1,3,1,171,1,289.5432,198.0444,108.128,2,1,3,2,1,0,0,198.0444,177.6558,1.4374,-20.3886,20,
126,1,3,1,172,1,109.2253,196.7017,78.2581,3,2,1,3,1,0,0,78.2581,76.3346,1.4651,-1.9235,40,
126,1,3,1,173,0,48.0934,285.4994,317.0312,0,0,0,3,0,0,0,317.0312,315.4135,0.94474,-1.6177,40,
126,1,3,1,174,1,165.2533,109.5699,348.5435,3,2,1,3,1,0,0,348.5435,326.9515,1.3124,-21.5919,10,
126,1,3,1,175,0,76.3216,345.3667,228.7476,0,0,0,2,0,0,0,345.3667,346.5355,1.4582,1.1688,40,
126,1,3,1,176,1,77.5155,138.5306,167.6822,3,1,2,2,0,0,1,138.5306,10.0674,1.4027,-128.4632,0,
126,1,3,1,177,1,165.5305,259.9961,228.3188,1,3,2,2,0,0,1,259.9961,212.6947,2.6873,-47.3014,0,
126,1,3,1,178,0,47.7327,288.2293,138.4447,0,0,0,3,0,0,0,138.4447,44.8422,2.7221,-93.6024,0,
126,1,3,1,179,1,225.0872,315.4577,198.4008,3,2,1,2,0,1,0,315.4577,300.7811,1.7915,-14.6766,20,
126,1,3,1,180,1,228.8413,345.8889,316.0764,2,1,3,2,1,0,0,345.8889,336.08,1.5763,-9.809,30,
126,1,4,1,181,1,257.1813,166.9281,78.1377,2,3,1,2,1,0,0,166.9281,343.6841,0.99998,176.756,0,
126,1,4,1,182,1,289.7418,259.4396,109.8118,2,1,3,2,1,0,0,259.4396,294.1698,1.2222,34.7303,0,
126,1,4,1,183,1,15.9734,255.758,227.3421,1,2,3,1,1,0,0,15.9734,245.6594,1.2916,-130.314,0,
126,1,4,1,184,1,46.6154,198.86,106.7599,2,3,1,2,1,0,0,198.86,23.2414,2.7634,-175.6186,0,
126,1,4,1,185,1,168.1356,255.9008,228.2875,1,3,2,2,0,0,1,255.9008,303.9749,1.3541,48.0741,0,
126,1,4,1,186,1,289.4547,16.4134,106.5638,2,1,3,2,1,0,0,16.4134,32.3594,1.1805,15.946,20,
126,1,4,1,187,1,136.9457,226.5745,319.3056,1,2,3,1,1,0,0,136.9457,195.7797,1.0968,58.834,0,
126,1,4,1,188,1,319.3268,287.6204,105.9408,1,3,2,1,1,0,0,319.3268,140.3137,0.97211,-179.0131,0,
126,1,4,1,189,0,287.4821,18.6225,79.6095,0,0,0,3,0,0,0,79.6095,86.034,1.611,6.4245,30,
126,1,4,1,190,0,228.9816,108.3428,319.0728,0,0,0,1,0,0,0,228.9816,172.6734,2.1039,-56.3082,0,
126,1,4,1,191,1,319.068,135.7538,285.1035,3,1,2,3,1,0,0,285.1035,269.0119,1.5904,-16.0916,20,
126,1,4,1,192,0,136.3476,345.7968,76.3038,0,0,0,2,0,0,0,345.7968,94.1485,1.2082,108.3517,0,
126,1,4,1,193,0,347.4162,18.1906,196.9258,0,0,0,1,0,0,0,347.4162,347.6981,3.0831,0.28188,40,
126,1,4,1,194,0,138.1123,16.197,105.6509,0,0,0,1,0,0,0,138.1123,121.7578,1.0208,-16.3545,20,
126,1,4,1,195,1,226.1349,199.8113,288.75,1,2,3,1,1,0,0,226.1349,176.8778,0.70136,-49.2571,0,
126,1,4,1,196,0,138.9652,167.3918,315.4281,0,0,0,1,0,0,0,138.9652,167.0343,1.2014,28.0691,10,
126,1,4,1,197,0,228.1178,317.0653,347.0935,0,0,0,2,0,0,0,317.0653,316.6674,1.1735,-0.39792,40,
126,1,4,1,198,0,48.5296,198.3818,137.0353,0,0,0,3,0,0,0,137.0353,134.1178,1.9721,-2.9175,40,
126,1,4,1,199,1,199.5456,347.7691,319.2117,3,1,2,2,0,0,1,347.7691,5.3745,2.0069,17.6055,20,
126,1,4,1,200,1,105.8008,199.2325,75.8187,2,1,3,2,1,0,0,199.2325,217.3096,1.8961,18.0772,20,
126,1,4,1,201,1,257.4179,167.0457,318.4953,1,3,2,1,1,0,0,257.4179,248.6943,1.4027,-8.7236,30,
126,1,4,1,202,1,259.3981,196.8513,48.5452,2,1,3,2,1,0,0,196.8513,221.9154,2.2359,25.0642,10,
126,1,4,1,203,1,138.115,227.0199,76.1616,2,1,3,2,1,0,0,227.0199,218.3065,1.5555,-8.7133,30,
126,1,4,1,204,1,137.1553,197.164,49.3562,3,2,1,3,1,0,0,49.3562,24.0134,1.2708,-25.3428,10,
126,1,4,1,205,1,138.5229,165.4168,77.2089,3,1,2,3,1,0,0,77.2089,65.8044,1.3471,-11.4045,30,
126,1,4,1,206,0,17.7844,286.2705,229.9748,0,0,0,3,0,0,0,229.9748,222.5713,1.1388,-7.4035,30,
126,1,4,1,207,0,285.9553,48.4396,196.5524,0,0,0,3,0,0,0,196.5524,223.2383,1.0139,26.6859,10,
126,1,4,1,208,1,257.0751,285.7283,228.6701,3,2,1,1,0,0,1,257.0751,181.0523,1.1666,-76.0228,0,
126,1,4,1,209,1,228.5829,136.8957,105.7713,2,1,3,3,0,0,1,105.7713,121.3605,1.6943,15.5892,20,
126,1,4,1,210,0,78.7321,348.103,229.5388,0,0,0,1,0,0,0,78.7321,128.2331,1.3748,49.5011,0,
126,1,4,1,211,1,138.3362,108.9468,45.347,2,3,1,2,1,0,0,108.9468,122.9669,1.1596,14.0202,20,
126,1,4,1,212,1,166.2329,16.0315,346.6176,2,3,1,2,1,0,0,16.0315,6.7273,1.5136,-9.3042,30,
126,1,4,1,213,0,139.097,168.071,346.1761,0,0,0,3,0,0,0,346.1761,347.9792,2.354,1.8031,40,
126,1,4,1,214,0,288.2859,136.1321,79.14,0,0,0,1,0,0,0,288.2859,277.1894,2.0069,-11.0966,30,
126,1,4,1,215,1,109.9119,347.9245,318.0907,2,3,1,2,1,0,0,347.9245,356.085,1.4031,8.1606,30,
126,1,4,1,216,0,287.6012,139.632,167.3377,0,0,0,1,0,0,0,287.6012,268.2286,3.8469,-19.3726,20,
126,1,4,1,217,0,139.687,288.0964,106.8391,0,0,0,3,0,0,0,106.8391,98.9927,1.6874,-7.8464,30,
126,1,4,1,218,1,259.4595,166.4395,198.7077,2,3,1,2,1,0,0,166.4395,316.1636,1.6179,149.7241,0,
126,1,4,1,219,1,227.0862,195.0448,259.4792,2,1,3,3,0,0,1,259.4792,243.2582,1.3124,-16.221,20,
126,1,4,1,220,0,109.8678,228.957,167.3008,0,0,0,1,0,0,0,109.8678,272.727,1.4513,162.8592,0,
126,1,4,1,221,0,165.9488,77.385,137.9058,0,0,0,1,0,0,0,165.9488,143.184,0.81936,-22.7648,10,
126,1,4,1,222,1,259.9724,77.9994,227.5934,3,2,1,3,1,0,0,227.5934,248.0487,1.0833,20.4554,20,
126,1,4,1,223,1,345.23,18.2029,287.5509,1,2,3,2,0,1,0,18.2029,91.7709,2.2362,73.568,0,
126,1,4,1,224,1,48.1829,196.3664,288.0154,1,3,2,1,1,0,0,48.1829,116.9538,1.1805,68.7708,0,
126,1,4,1,225,1,285.9432,168.3676,137.5794,1,3,2,1,1,0,0,285.9432,269.6338,1.4792,-16.3094,20,
126,1,4,1,226,0,139.2552,105.4358,319.8289,0,0,0,2,0,0,0,105.4358,108.3575,1.1388,2.9218,40,
126,1,4,1,227,0,47.5431,227.6001,286.8345,0,0,0,3,0,0,0,286.8345,265.1494,1.6943,-21.685,10,
126,1,4,1,228,0,226.0367,135.049,319.3428,0,0,0,1,0,0,0,226.0367,137.3319,4.3058,-88.7048,0,
126,1,4,1,229,1,198.1581,166.7134,139.7833,1,3,2,2,0,0,1,166.7134,136.0893,1.2017,-30.6241,0,
126,1,4,1,230,0,78.4616,225.7178,196.74,0,0,0,3,0,0,0,196.74,241.2193,1.4027,44.4793,0,
126,1,4,1,231,0,169.4888,227.0426,138.2927,0,0,0,1,0,0,0,169.4888,142.3012,0.93745,-27.1876,10,
126,1,4,1,232,0,197.7205,285.1731,349.0728,0,0,0,1,0,0,0,197.7205,199.1117,1.236,1.3912,40,
126,1,4,1,233,1,348.8769,196.062,256.0199,1,3,2,1,1,0,0,348.8769,192.9229,1.1387,-155.954,0,
126,1,4,1,234,1,285.0592,227.5057,47.2169,3,1,2,3,1,0,0,47.2169,24.6223,1.5417,-22.5946,10,
126,1,4,1,235,1,318.2253,227.9214,288.3609,3,1,2,3,1,0,0,288.3609,320.2251,1.1319,31.8642,0,
126,1,4,1,236,0,79.3865,229.5486,259.6519,0,0,0,1,0,0,0,79.3865,330.0036,2.5484,-109.3829,0,
126,1,4,1,237,0,285.7583,197.1131,136.6211,0,0,0,1,0,0,0,285.7583,284.2067,1.3402,-1.5516,40,
126,1,4,1,238,1,286.6551,46.465,77.5204,3,1,2,3,1,0,0,77.5204,78.1827,1.7638,0.66234,40,
126,1,4,1,239,0,319.9316,228.7668,287.2299,0,0,0,3,0,0,0,287.2299,289.3764,0.94425,2.1464,40,
126,1,4,1,240,0,138.0905,345.9124,316.0607,0,0,0,1,0,0,0,138.0905,147.8,1.3469,9.7095,30,
126,1,5,1,241,1,286.4876,346.5196,47.6819,2,1,3,3,0,0,1,47.6819,336.9208,1.1388,-70.7611,0,
126,1,5,1,242,0,166.5972,17.2648,107.6661,0,0,0,2,0,0,0,17.2648,40.2628,1.1874,22.9981,10,
126,1,5,1,243,1,315.6583,259.2243,109.787,3,2,1,2,0,1,0,259.2243,266.9579,1.604,7.7336,30,
126,1,5,1,244,1,75.0009,229.05,139.5154,2,3,1,2,1,0,0,229.05,241.0668,1.5207,12.0168,20,
126,1,5,1,245,0,196.1451,108.5602,77.1609,0,0,0,2,0,0,0,108.5602,118.4949,1.1249,9.9346,30,
126,1,5,1,246,0,106.3476,79.5127,256.3285,0,0,0,3,0,0,0,256.3285,257.7317,1.0487,1.4032,40,
126,1,5,1,247,1,79.6473,319.7729,45.8346,3,2,1,3,1,0,0,45.8346,45.2134,1.5902,-0.62118,40,
126,1,5,1,248,1,15.7136,348.8353,288.045,1,2,3,3,0,0,1,288.045,27.859,2.465,99.814,0,
126,1,5,1,249,0,347.8157,19.2704,47.2595,0,0,0,1,0,0,0,347.8157,343.2573,1.7916,-4.5584,30,
126,1,5,1,250,1,228.4684,45.4854,318.6967,1,2,3,2,0,1,0,45.4854,37.9259,0.95843,-7.5595,30,
126,1,5,1,251,1,106.3607,196.4754,289.8061,3,1,2,3,1,0,0,289.8061,309.6252,2.1318,19.8191,20,
126,1,5,1,252,1,346.2639,17.7854,257.5492,1,2,3,1,1,0,0,346.2639,340.1883,1.9512,-6.0756,30,
126,1,5,1,253,1,105.7938,79.8481,257.8278,3,1,2,2,0,0,1,79.8481,99.6312,1.2222,19.7831,20,
126,1,5,1,254,1,17.7773,285.1981,317.7858,3,2,1,2,0,1,0,285.1981,291.0667,1.8401,5.8686,30,
126,1,5,1,255,0,285.0248,256.1887,315.1593,0,0,0,1,0,0,0,285.0248,333.1516,4.9233,48.1268,0,
126,1,5,1,256,0,136.491,108.6063,319.5073,0,0,0,2,0,0,0,108.6063,133.2546,1.3124,24.6483,10,
126,1,5,1,257,1,16.5978,169.191,105.3053,2,1,3,1,0,1,0,16.5978,207.5733,1.0002,-169.0245,0,
126,1,5,1,258,1,256.182,198.0789,16.5568,2,1,3,1,0,1,0,256.182,233.7218,1.0139,-22.4602,10,
126,1,5,1,259,1,106.1728,287.539,257.7531,1,2,3,1,1,0,0,106.1728,104.3092,1.2638,-1.8636,40,
126,1,5,1,260,1,138.6363,165.7819,259.245,2,3,1,3,0,1,0,259.245,238.9376,1.6041,-20.3074,20,
126,1,5,1,261,0,109.6333,17.0397,135.0805,0,0,0,3,0,0,0,135.0805,316.5316,0.87485,-178.5489,0,
126,1,5,1,262,0,17.5693,166.7761,347.4229,0,0,0,3,0,0,0,347.4229,349.4586,1.014,2.0357,40,
126,1,5,1,263,0,315.997,137.591,289.7572,0,0,0,2,0,0,0,137.591,133.3694,1.3123,-4.2216,30,
126,1,5,1,264,0,198.5929,109.3745,17.1326,0,0,0,3,0,0,0,17.1326,11.1257,1.0346,-6.0069,30,
126,1,5,1,265,1,76.6873,46.3558,227.6306,2,1,3,2,1,0,0,46.3558,48.7042,0.97929,2.3483,40,
126,1,5,1,266,1,77.2756,226.5426,258.5664,1,3,2,1,1,0,0,77.2756,16.585,1.6388,-60.6906,0,
126,1,5,1,267,1,348.6706,136.1572,228.9045,2,3,1,2,1,0,0,136.1572,43.5906,0.72908,-92.5665,0,
126,1,5,1,268,1,47.5322,77.2162,195.4821,3,2,1,3,1,0,0,195.4821,218.9143,1.0556,23.4322,10,
126,1,5,1,269,1,135.3734,165.2743,319.3348,2,1,3,2,1,0,0,165.2743,144.1333,1.0972,-21.141,10,
126,1,5,1,270,1,108.6812,136.2559,195.4825,3,2,1,1,0,0,1,108.6812,145.4458,1.1874,36.7646,0,
126,1,5,1,271,0,346.4078,287.3024,109.0893,0,0,0,3,0,0,0,109.0893,124.9934,2.104,15.904,20,
126,1,5,1,272,0,47.4825,137.3645,17.9161,0,0,0,1,0,0,0,47.4825,359.1164,2.1457,-48.3662,0,
126,1,5,1,273,1,348.1536,227.4077,259.2751,2,3,1,2,1,0,0,227.4077,276.993,1.5207,49.5853,0,
126,1,5,1,274,1,138.3545,345.1539,47.7894,1,3,2,2,0,0,1,345.1539,321.7566,1.0069,-23.3973,10,
126,1,5,1,275,0,345.6864,256.2508,166.9012,0,0,0,2,0,0,0,256.2508,304.7487,1.4304,48.4979,0,
126,1,5,1,276,1,49.4503,135.8967,109.0016,2,1,3,3,0,0,1,109.0016,33.146,1.2638,-75.8556,0,
126,1,5,1,277,0,168.0567,195.5549,346.1824,0,0,0,3,0,0,0,346.1824,349.4046,1.3471,3.2222,30,
126,1,5,1,278,0,19.5054,165.1003,135.8415,0,0,0,1,0,0,0,19.5054,14.9345,1.7568,-4.5708,30,
126,1,5,1,279,0,78.5809,229.1702,48.5328,0,0,0,1,0,0,0,78.5809,33.6625,1.5069,-44.9183,0,
126,1,5,1,280,0,169.6301,77.6962,257.3467,0,0,0,3,0,0,0,257.3467,248.7725,1.5138,-8.5742,30,
126,1,5,1,281,1,349.5919,286.7207,76.1324,3,2,1,1,0,0,1,349.5919,4.5537,2.3401,14.9618,20,
126,1,5,1,282,1,318.8562,17.9363,288.4437,3,1,2,3,1,0,0,288.4437,295.8515,1.104,7.4078,30,
126,1,5,1,283,1,106.1733,258.9272,138.9925,1,3,2,1,1,0,0,106.1733,312.9898,1.3957,-153.1835,0,
126,1,5,1,284,0,316.5721,17.7038,135.3254,0,0,0,2,0,0,0,17.7038,12.0137,1.0347,-5.6902,30,
126,1,5,1,285,0,229.925,78.0282,287.3933,0,0,0,1,0,0,0,229.925,332.9186,1.8818,102.9936,0,
126,1,5,1,286,0,349.7252,109.7203,135.4512,0,0,0,3,0,0,0,135.4512,143.3491,1.3124,7.898,30,
126,1,5,1,287,0,256.5253,199.2706,79.6834,0,0,0,2,0,0,0,199.2706,209.2853,1.3054,10.0147,30,
126,1,5,1,288,0,17.7986,109.6076,199.8177,0,0,0,3,0,0,0,199.8177,210.6431,1.1944,10.8254,30,
126,1,5,1,289,0,19.6135,136.5261,107.682,0,0,0,1,0,0,0,19.6135,143.6754,1.1039,124.0619,0,
126,1,5,1,290,1,196.4392,168.6221,228.6616,1,2,3,1,1,0,0,196.4392,106.7501,1.0694,-89.6891,0,
126,1,5,1,291,0,107.6725,196.5046,349.8874,0,0,0,1,0,0,0,107.6725,139.3511,1.3679,31.6786,0,
126,1,5,1,292,0,319.3429,346.0103,45.1702,0,0,0,1,0,0,0,319.3429,309.9272,3.1248,-9.4157,30,
126,1,5,1,293,1,48.0836,198.3917,169.9344,3,2,1,1,0,0,1,48.0836,347.3088,1.5485,-60.7748,0,
126,1,5,1,294,1,15.4843,347.2078,258.0687,2,3,1,2,1,0,0,347.2078,1.5554,1.6871,14.3475,20,
126,1,5,1,295,1,19.0277,137.8415,259.2913,2,3,1,2,1,0,0,137.8415,137.0384,2.0207,-0.80316,40,
126,1,5,1,296,1,315.9217,227.344,136.8133,2,1,3,2,1,0,0,227.344,20.489,0.91661,153.1449,0,
126,1,5,1,297,0,49.7162,78.0345,287.717,0,0,0,1,0,0,0,49.7162,157.4661,1.1805,107.7499,0,
126,1,5,1,298,1,226.0984,48.2758,168.4017,1,3,2,1,1,0,0,226.0984,218.3499,1.0416,-7.7485,30,
126,1,5,1,299,1,228.2931,17.6996,137.4559,3,2,1,3,1,0,0,137.4559,135.3963,1.437,-2.0595,40,
126,1,5,1,300,1,18.1025,289.3124,317.2847,3,2,1,3,1,0,0,317.2847,322.2714,1.4721,4.9867,30,
126,1,6,1,301,1,258.0171,46.8509,167.6649,3,1,2,1,0,1,0,258.0171,261.9738,1.1873,3.9567,30,
126,1,6,1,302,1,49.4315,347.3469,19.5371,3,1,2,3,1,0,0,19.5371,29.1943,1.1387,9.6573,30,
126,1,6,1,303,0,195.4892,48.9591,166.2419,0,0,0,3,0,0,0,166.2419,7.4419,0.82634,-158.8,0,
126,1,6,1,304,1,346.075,136.3676,288.5181,1,2,3,1,1,0,0,346.075,165.9084,0.56946,179.8334,0,
126,1,6,1,305,1,257.8987,346.305,225.2614,2,1,3,2,1,0,0,346.305,324.5381,1.611,-21.7669,10,
126,1,6,1,306,1,347.3113,108.5439,19.4123,1,2,3,3,0,0,1,19.4123,32.8508,1.5416,13.4385,20,
126,1,6,1,307,1,16.2741,316.3297,289.954,3,1,2,3,1,0,0,289.954,320.0843,1.0763,30.1303,0,
126,1,6,1,308,1,167.0372,316.8109,109.4968,2,3,1,2,1,0,0,316.8109,289.7638,1.0693,-27.047,10,
126,1,6,1,309,0,316.6908,108.9219,139.4794,0,0,0,2,0,0,0,108.9219,115.8011,1.0763,6.8792,30,
126,1,6,1,310,0,317.2976,198.1281,258.936,0,0,0,2,0,0,0,198.1281,135.7424,0.95843,-62.3857,0,
126,1,6,1,311,0,289.7069,256.5074,199.6331,0,0,0,3,0,0,0,199.6331,228.3561,0.89574,28.723,10,
126,1,6,1,312,1,197.3864,76.947,286.9628,1,3,2,1,1,0,0,197.3864,183.0966,0.69439,-14.2898,20,
126,1,6,1,313,0,285.1283,347.1104,19.262,0,0,0,1,0,0,0,285.1283,219.5912,1.1874,-65.5371,0,
126,1,6,1,314,0,46.7776,77.2778,106.9844,0,0,0,2,0,0,0,77.2778,112.9248,1.0346,35.6471,0,
126,1,6,1,315,1,76.0747,198.1335,19.1005,3,1,2,2,0,0,1,198.1335,196.2944,1.7707,-1.8391,40,
126,1,6,1,316,0,196.2255,315.8802,169.6375,0,0,0,1,0,0,0,196.2255,283.6459,1.7776,87.4205,0,
126,1,6,1,317,0,106.9969,18.4833,346.2208,0,0,0,3,0,0,0,346.2208,4.7123,1.1597,18.4915,20,
126,1,6,1,318,0,255.7275,16.1069,136.8933,0,0,0,2,0,0,0,16.1069,9.7693,1.3402,-6.3375,30,
126,1,6,1,319,1,139.6762,226.3176,75.9464,1,2,3,2,0,1,0,226.3176,231.877,1.2775,5.5595,30,
126,1,6,1,320,1,167.8379,46.1151,76.8532,2,1,3,3,0,0,1,76.8532,74.1656,1.7359,-2.6876,40,
126,1,6,1,321,1,258.7162,195.5726,166.6226,3,1,2,3,1,0,0,166.6226,130.4414,2.2359,-36.1812,0,
126,1,6,1,322,1,348.9717,136.8816,77.5202,1,3,2,1,1,0,0,348.9717,89.1849,1.4513,100.2132,0,
126,1,6,1,323,1,136.6437,107.6978,17.8254,1,2,3,1,1,0,0,136.6437,20.9782,1.618,-115.6655,0,
126,1,6,1,324,1,315.1219,18.9175,195.7733,3,2,1,3,1,0,0,195.7733,201.8712,1.3471,6.0979,30,
126,1,6,1,325,1,169.4641,19.0138,135.7168,3,2,1,3,1,0,0,135.7168,142.4034,2.8401,6.6866,30,
126,1,6,1,326,0,106.4267,226.6041,49.6346,0,0,0,2,0,0,0,226.6041,232.513,2.1877,5.9089,30,
126,1,6,1,327,0,167.1177,348.7659,197.7788,0,0,0,1,0,0,0,167.1177,165.6208,1.3054,-1.4969,40,
126,1,6,1,328,1,316.4533,15.5506,49.423,2,3,1,2,1,0,0,15.5506,332.6355,1.4165,-42.9151,0,
126,1,6,1,329,0,76.067,318.5497,108.6572,0,0,0,1,0,0,0,76.067,344.1978,1.7431,-91.8692,0,
126,1,6,1,330,1,348.8441,165.7958,197.9201,3,1,2,3,1,0,0,197.9201,165.9874,2.8401,-31.9327,0,
126,1,6,1,331,1,46.8885,139.9964,198.247,1,3,2,1,1,0,0,46.8885,229.6524,1.6458,-177.2362,0,
126,1,6,1,332,1,19.6591,46.4026,168.6816,2,3,1,2,1,0,0,46.4026,47.7273,1.4234,1.3247,40,
126,1,6,1,333,1,76.0272,109.7371,137.8773,2,3,1,2,1,0,0,109.7371,94.5362,2.6873,-15.2009,20,
126,1,6,1,334,0,15.8046,318.5132,197.8887,0,0,0,2,0,0,0,318.5132,11.8843,2.3475,53.3711,0,
126,1,6,1,335,1,46.5571,258.2639,346.8687,1,3,2,1,1,0,0,46.5571,208.8785,1.0138,162.3214,0,
126,1,6,1,336,1,165.947,258.1943,348.2326,1,3,2,1,1,0,0,165.947,160.9486,1.0556,-4.9984,30,
126,1,6,1,337,1,15.97,259.2594,109.9956,1,3,2,2,0,0,1,259.2594,249.1622,1.6669,-10.0971,30,
126,1,6,1,338,1,199.4408,46.0835,138.0623,2,1,3,2,1,0,0,46.0835,53.7598,0.74993,7.6764,30,
126,1,6,1,339,1,197.1806,18.7836,167.0691,3,2,1,1,0,0,1,197.1806,153.1514,1.1111,-44.0292,0,
126,1,6,1,340,0,137.2287,315.9424,348.2324,0,0,0,3,0,0,0,348.2324,343.6163,1.1878,-4.6161,30,
126,1,6,1,341,1,229.0571,79.5546,49.0528,2,1,3,2,1,0,0,79.5546,120.3847,1.0207,40.8301,0,
126,1,6,1,342,1,198.3564,75.534,257.469,1,2,3,2,0,1,0,75.534,108.4454,0.88885,32.9114,0,
126,1,6,1,343,1,285.9112,19.469,135.7656,3,2,1,3,1,0,0,135.7656,139.05,2.2706,3.2844,30,
126,1,6,1,344,0,105.5533,198.9289,18.0665,0,0,0,2,0,0,0,198.9289,198.1581,2.4164,-0.7708,40,
126,1,6,1,345,1,195.2797,318.5913,18.4525,1,2,3,3,0,0,1,18.4525,16.7318,1.4305,-1.7206,40,
126,1,6,1,346,0,17.0054,137.5262,228.2319,0,0,0,2,0,0,0,137.5262,143.5017,2.3263,5.9755,30,
126,1,6,1,347,0,166.1322,198.5786,318.0668,0,0,0,2,0,0,0,198.5786,155.2465,1.7846,-43.3321,0,
126,1,6,1,348,0,108.8236,136.4495,198.8402,0,0,0,2,0,0,0,136.4495,149.2723,1.3124,12.8228,20,
126,1,6,1,349,0,169.3907,317.8083,15.7309,0,0,0,2,0,0,0,317.8083,324.3994,2.2707,6.5911,30,
126,1,6,1,350,1,108.2036,45.4305,167.6167,2,1,3,3,0,0,1,167.6167,158.2302,1.8679,-9.3865,30,
126,1,6,1,351,1,45.7965,19.3752,348.2374,1,3,2,2,0,0,1,19.3752,27.0458,1.0211,7.6706,30,
126,1,6,1,352,1,138.9461,319.3934,78.3432,2,3,1,2,1,0,0,319.3934,334.3243,1.2361,14.9308,20,
126,1,6,1,353,1,227.9419,258.2589,346.8023,1,3,2,3,0,1,0,346.8023,338.839,1.0696,-7.9633,30,
126,1,6,1,354,1,108.7242,195.2314,347.587,3,1,2,3,1,0,0,347.587,352.9265,1.0972,5.3395,30,
126,1,6,1,355,0,105.7794,18.4761,288.118,0,0,0,3,0,0,0,288.118,310.0859,1.25,21.9678,10,
126,1,6,1,356,1,19.065,346.6256,289.5499,2,3,1,2,1,0,0,346.6256,14.7974,1.0208,28.1718,10,
126,1,6,1,357,1,198.7794,139.2946,259.1927,2,3,1,2,1,0,0,139.2946,149.9905,1.0277,10.6959,30,
126,1,6,1,358,1,257.1176,165.8238,226.3081,3,1,2,3,1,0,0,226.3081,234.6288,1.1666,8.3207,30,
126,1,6,1,359,1,345.0057,77.6581,258.9382,1,2,3,1,1,0,0,345.0057,170.5005,0.70832,-174.5053,0,
126,1,6,1,360,0,135.0446,346.9428,289.4349,0,0,0,1,0,0,0,135.0446,179.6287,0.48609,44.5842,0,
126,1,7,2,361,0,165.8134,287.8473,198.5023,0,0,0,1,0,0,0,165.8134,130.1676,0.90972,-35.6458,0,
126,1,7,2,362,1,78.1986,105.2896,257.1271,1,2,3,1,1,0,0,78.1986,116.3941,1.2291,38.1955,0,
126,1,7,2,363,1,347.1859,106.1043,198.4655,3,1,2,2,0,0,1,106.1043,82.1035,0.96536,-24.0008,10,
126,1,7,2,364,1,136.9174,199.3585,255.8896,3,2,1,3,1,0,0,255.8896,238.7271,0.92376,-17.1625,20,
126,1,7,2,365,1,18.8949,49.8513,286.7931,2,3,1,2,1,0,0,49.8513,57.2154,0.91666,7.3641,30,
126,1,7,2,366,0,345.5588,139.7525,286.2778,0,0,0,3,0,0,0,286.2778,309.9968,0.875,23.719,10,
126,1,7,2,367,0,319.1075,197.6013,108.6797,0,0,0,1,0,0,0,319.1075,152.8145,0.8888,-166.2929,0,
126,1,7,2,368,1,198.8527,256.4545,75.4666,1,3,2,1,1,0,0,198.8527,158.9793,0.68051,-39.8734,0,
126,1,7,2,369,1,198.9672,137.5522,285.4323,3,1,2,1,0,1,0,198.9672,NaN,100000,999,0,
126,1,7,2,370,1,196.1745,136.7954,257.5073,2,1,3,2,1,0,0,136.7954,131.0748,1.0694,-5.7206,30,
126,1,7,2,371,1,167.9938,315.6971,138.8354,2,1,3,2,1,0,0,315.6971,311.134,2.5415,-4.5631,30,
126,1,7,2,372,0,258.8451,345.6752,199.2602,0,0,0,1,0,0,0,258.8451,131.0155,1.0621,-127.8296,0,
126,1,7,2,373,1,138.0788,165.836,78.2439,1,3,2,1,1,0,0,138.0788,142.9759,0.79822,4.8971,30,
126,1,7,2,374,1,285.5321,225.8693,15.0742,3,1,2,1,0,1,0,285.5321,NaN,100000,999,0,
126,1,7,2,375,1,46.0687,228.3133,165.0058,1,2,3,1,1,0,0,46.0687,30.9632,1.2294,-15.1055,20,
126,1,7,2,376,1,286.7193,227.4038,257.4717,2,1,3,1,0,1,0,286.7193,NaN,100000,999,0,
126,1,7,2,377,0,315.8398,106.0679,17.2263,0,0,0,3,0,0,0,17.2263,27.094,2.0971,9.8677,30,
126,1,7,2,378,0,195.4071,289.3112,255.1317,0,0,0,2,0,0,0,289.3112,294.0438,1.7638,4.7326,30,
126,1,7,2,379,0,229.9705,316.6672,167.2406,0,0,0,1,0,0,0,229.9705,17.1838,2.4582,147.2132,0,
126,1,7,2,380,1,49.5445,285.9749,167.1756,3,2,1,1,0,0,1,49.5445,112.0629,1.1943,62.5184,0,
126,1,7,2,381,1,197.6862,106.178,167.0459,2,1,3,2,1,0,0,106.178,256.8189,1.4725,150.6409,0,
126,1,7,2,382,1,227.4273,17.4841,169.0062,1,2,3,1,1,0,0,227.4273,220.4679,0.7707,-6.9594,30,
126,1,7,2,383,0,287.1964,229.2025,318.9906,0,0,0,1,0,0,0,287.1964,236.713,1.2777,-50.4834,0,
126,1,7,2,384,0,259.7002,288.9119,49.1404,0,0,0,3,0,0,0,49.1404,43.094,1.9857,-6.0464,30,
126,1,7,2,385,0,286.5741,139.7066,18.3413,0,0,0,2,0,0,0,139.7066,134.8825,1.6041,-4.8241,30,
126,1,7,2,386,1,19.8002,345.7791,165.7022,3,1,2,3,1,0,0,165.7022,149.938,1.1039,-15.7641,20,
126,1,7,2,387,1,319.2172,285.2746,138.9883,2,3,1,2,1,0,0,285.2746,141.7244,0.88905,-143.5502,0,
126,1,7,2,388,1,15.0548,136.9097,75.2244,1,2,3,2,0,1,0,136.9097,NaN,100000,999,0,
126,1,7,2,389,0,347.4519,228.7348,48.8335,0,0,0,2,0,0,0,228.7348,231.1982,1.4375,2.4634,40,
126,1,7,2,390,0,105.9111,285.3158,316.6332,0,0,0,3,0,0,0,316.6332,305.7899,1.0277,-10.8433,30,
126,1,7,2,391,0,345.6655,167.6836,315.7851,0,0,0,3,0,0,0,315.7851,297.5698,0.79161,-18.2153,20,
126,1,7,2,392,1,257.0488,165.3302,199.1843,2,1,3,2,1,0,0,165.3302,143.6085,1.1316,-21.7216,10,
126,1,7,2,393,1,259.6632,18.5602,78.2196,3,2,1,3,1,0,0,78.2196,38.3101,1.7916,-39.9095,0,
126,1,7,2,394,1,78.7101,166.4112,229.3509,2,3,1,2,1,0,0,166.4112,348.3917,1.1735,-178.0195,0,
126,1,7,2,395,0,349.6568,226.1029,15.4517,0,0,0,1,0,0,0,349.6568,145.304,1.0902,155.6472,0,
126,1,7,2,396,1,138.5503,168.2876,289.7491,2,1,3,3,0,0,1,289.7491,293.6741,1.2569,3.925,30,
126,1,7,2,397,0,317.7743,49.5966,197.6703,0,0,0,2,0,0,0,49.5966,34.7758,1.0694,-14.8208,20,
126,1,7,2,398,1,259.3972,315.5469,15.363,3,1,2,2,0,0,1,315.5469,314.58,1.2638,-0.9669,40,
126,1,7,2,399,0,318.0173,348.177,287.0508,0,0,0,2,0,0,0,348.177,335.6205,1.1109,-12.5564,20,
126,1,7,2,400,0,257.6512,76.717,138.5771,0,0,0,1,0,0,0,257.6512,347.2238,1.3263,89.5726,0,
126,1,7,2,401,1,105.413,255.4114,139.0126,3,2,1,3,1,0,0,139.0126,139.8956,1.1944,0.88306,40,
126,1,7,2,402,1,288.44,259.2385,318.0878,3,2,1,3,1,0,0,318.0878,325.6163,1.3817,7.5285,30,
126,1,7,2,403,0,229.1714,77.3652,108.6441,0,0,0,3,0,0,0,108.6441,112.5856,1.1041,3.9414,30,
126,1,7,2,404,1,167.3694,45.9842,199.213,2,3,1,3,0,1,0,199.213,NaN,100000,999,0,
126,1,7,2,405,1,136.2135,79.6742,257.6657,2,1,3,1,0,1,0,136.2135,NaN,100000,999,0,
126,1,7,2,406,1,17.6613,285.9834,199.5914,1,2,3,1,1,0,0,17.6613,166.2688,0.72917,148.6075,0,
126,1,7,2,407,1,168.7573,316.7184,78.1069,1,2,3,1,1,0,0,168.7573,151.7341,0.62491,-17.0232,20,
126,1,7,2,408,0,109.2763,135.93,316.7661,0,0,0,2,0,0,0,135.93,308.1711,1.4513,172.2411,0,
126,1,7,2,409,0,315.1733,229.4887,108.5362,0,0,0,2,0,0,0,229.4887,245.0259,1.2638,15.5372,20,
126,1,7,2,410,1,18.6204,76.8995,105.3978,2,3,1,3,0,1,0,105.3978,NaN,100000,999,0,
126,1,7,2,411,1,257.7696,226.4448,196.1277,3,1,2,3,1,0,0,196.1277,210.515,0.84024,14.3873,20,
126,1,7,2,412,1,196.5278,348.686,48.0061,3,2,1,3,1,0,0,48.0061,213.2661,2.3471,165.26,0,
126,1,7,2,413,0,345.8942,226.6265,78.1677,0,0,0,1,0,0,0,345.8942,137.7632,0.95122,151.869,0,
126,1,7,2,414,1,288.2952,16.1224,49.0982,2,3,1,3,0,1,0,49.0982,NaN,100000,999,0,
126,1,7,2,415,1,109.197,45.6421,16.264,3,1,2,3,1,0,0,16.264,30.4601,1.2848,14.1961,20,
126,1,7,2,416,1,106.3547,166.6872,15.8374,1,3,2,1,1,0,0,106.3547,129.0227,0.90275,22.668,10,
126,1,7,2,417,0,198.7067,168.6286,46.682,0,0,0,3,0,0,0,46.682,41.973,1.6388,-4.709,30,
126,1,7,2,418,0,46.4505,19.5941,319.9354,0,0,0,3,0,0,0,319.9354,308.4469,1.7287,-11.4884,30,
126,1,7,2,419,1,106.7716,256.7831,168.8538,3,1,2,3,1,0,0,168.8538,140.3052,1.4583,-28.5486,10,
126,1,7,2,420,0,46.595,165.0778,17.0781,0,0,0,1,0,0,0,46.595,136.7275,1.0694,90.1326,0,
126,1,8,2,421,1,109.4181,227.2354,349.4711,3,2,1,3,1,0,0,349.4711,340.1686,1.0137,-9.3025,30,
126,1,8,2,422,1,136.8139,169.1356,347.6119,1,2,3,1,1,0,0,136.8139,141.1849,0.77772,4.371,30,
126,1,8,2,423,1,349.7378,19.317,227.9462,2,3,1,1,0,0,1,349.7378,128.6014,1.9303,138.8636,0,
126,1,8,2,424,0,135.4709,319.3486,15.5352,0,0,0,2,0,0,0,319.3486,322.8519,1.5833,3.5034,30,
126,1,8,2,425,0,255.6239,349.3158,226.3359,0,0,0,1,0,0,0,255.6239,301.8647,1.4096,46.2408,0,
126,1,8,2,426,0,136.064,106.6203,167.5214,0,0,0,2,0,0,0,106.6203,105.4809,1.4166,-1.1395,40,
126,1,8,2,427,1,15.1806,49.8989,107.5278,3,2,1,3,1,0,0,107.5278,98.7937,2.722,-8.7342,30,
126,1,8,2,428,0,255.8634,347.1974,136.0727,0,0,0,2,0,0,0,347.1974,329.5794,1.0415,-17.618,20,
126,1,8,2,429,0,136.3796,347.6049,169.0209,0,0,0,2,0,0,0,347.6049,351.1779,1.0137,3.573,30,
126,1,8,2,430,1,169.0594,107.1315,79.3462,3,1,2,1,0,1,0,169.0594,NaN,100000,999,0,
126,1,8,2,431,0,108.8391,16.3433,75.9685,0,0,0,1,0,0,0,108.8391,122.593,0.90966,13.7539,20,
126,1,8,2,432,1,318.8254,16.6619,165.0479,3,2,1,3,1,0,0,165.0479,167.2077,1.5902,2.1598,40,
126,1,8,2,433,0,135.8916,287.6424,79.7478,0,0,0,2,0,0,0,287.6424,288.2803,1.7499,0.63787,40,
126,1,8,2,434,0,48.653,317.0662,226.2024,0,0,0,3,0,0,0,226.2024,72.2363,1.4513,-153.9661,0,
126,1,8,2,435,0,45.5994,165.5813,75.1672,0,0,0,3,0,0,0,75.1672,70.0566,1.4023,-5.1106,30,
126,1,8,2,436,0,227.4048,15.7821,256.6165,0,0,0,1,0,0,0,227.4048,138.8231,1.0416,-88.5818,0,
126,1,8,2,437,1,256.7141,138.0232,315.3368,2,1,3,2,1,0,0,138.0232,131.5134,0.94441,-6.5098,30,
126,1,8,2,438,0,77.8,316.4599,195.108,0,0,0,1,0,0,0,77.8,106.2857,0.97217,28.4857,10,
126,1,8,2,439,1,348.7011,109.6427,226.8366,1,3,2,1,1,0,0,348.7011,198.403,0.80516,-150.2981,0,
126,1,8,2,440,1,19.1059,45.8484,139.6044,1,3,2,1,1,0,0,19.1059,187.1112,0.58317,168.0053,0,
126,1,8,2,441,1,198.2233,347.3262,317.007,1,3,2,3,0,1,0,317.007,NaN,100000,999,0,
126,1,8,2,442,1,45.2751,75.1127,318.05,1,2,3,1,1,0,0,45.2751,186.6759,0.54165,141.4008,0,
126,1,8,2,443,1,76.9735,136.9482,197.9611,3,2,1,1,0,0,1,76.9735,12.6351,2.1387,-64.3384,0,
126,1,8,2,444,1,18.4611,169.6559,317.1634,3,1,2,3,1,0,0,317.1634,340.0691,0.72222,22.9057,10,
126,1,8,2,445,0,317.5209,346.03,137.2624,0,0,0,3,0,0,0,137.2624,123.9156,1.0832,-13.3468,20,
126,1,8,2,446,1,106.3919,79.3059,349.2341,3,1,2,2,0,0,1,79.3059,123.4251,2.2221,44.1192,0,
126,1,8,2,447,1,198.2515,108.5849,348.5862,1,3,2,1,1,0,0,198.2515,358.9456,1.1805,160.6942,0,
126,1,8,2,448,1,49.1694,75.4365,317.937,1,2,3,1,1,0,0,49.1694,38.6758,2.5762,-10.4935,30,
126,1,8,2,449,1,47.1235,109.288,319.7931,3,2,1,3,1,0,0,319.7931,308.4991,0.88882,-11.294,30,
126,1,8,2,450,1,195.9768,346.0396,15.5938,2,1,3,2,1,0,0,346.0396,330.8221,1.5693,-15.2175,20,
126,1,8,2,451,1,229.2252,257.2208,319.6543,1,3,2,2,0,0,1,257.2208,290.574,1.4652,33.3532,0,
126,1,8,2,452,1,48.2102,136.6514,18.5964,1,2,3,1,1,0,0,48.2102,212.9101,0.8611,164.6999,0,
126,1,8,2,453,0,79.667,167.1973,105.7974,0,0,0,3,0,0,0,105.7974,116.1682,1.0694,10.3708,30,
126,1,8,2,454,1,76.5252,226.0422,318.0781,3,1,2,2,0,0,1,226.0422,224.2633,1.1176,-1.7789,40,
126,1,8,2,455,0,135.487,75.4602,318.5108,0,0,0,2,0,0,0,75.4602,59.2504,0.6597,-16.2098,20,
126,1,8,2,456,0,17.2115,347.4705,288.8183,0,0,0,2,0,0,0,347.4705,58.5533,1.8402,71.0828,0,
126,1,8,2,457,1,15.3521,288.3249,258.9728,2,3,1,2,1,0,0,288.3249,28.2188,0.72909,99.8939,0,
126,1,8,2,458,1,255.2631,47.4817,228.7755,2,3,1,2,1,0,0,47.4817,45.856,0.91658,-1.6257,40,
126,1,8,2,459,1,108.961,49.2672,319.1369,3,2,1,2,0,1,0,49.2672,NaN,100000,999,0,
126,1,8,2,460,1,137.3545,315.7766,108.254,3,1,2,2,0,0,1,315.7766,301.0565,1.5693,-14.7201,20,
126,1,8,2,461,0,49.3064,138.4654,317.5836,0,0,0,2,0,0,0,138.4654,335.4556,1.3402,-163.0098,0,
126,1,8,2,462,0,45.9478,167.1184,229.7735,0,0,0,2,0,0,0,167.1184,149.4718,2.8609,-17.6466,20,
126,1,8,2,463,0,79.4827,288.675,17.986,0,0,0,2,0,0,0,288.675,160.1549,1.3402,-128.5201,0,
126,1,8,2,464,1,198.9664,46.1393,227.7333,2,3,1,2,1,0,0,46.1393,57.1764,1.3959,11.0371,30,
126,1,8,2,465,1,226.9429,15.3431,197.9433,3,1,2,3,1,0,0,197.9433,227.3522,3.4791,29.4089,10,
126,1,8,2,466,1,46.7763,196.3813,259.7625,2,3,1,2,1,0,0,196.3813,211.6415,1.4996,15.2602,20,
126,1,8,2,467,1,78.5828,348.2184,139.4236,2,1,3,1,0,1,0,78.5828,NaN,100000,999,0,
126,1,8,2,468,0,317.9206,259.6789,195.0847,0,0,0,3,0,0,0,195.0847,136.0538,1.4096,-59.0309,0,
126,1,8,2,469,0,255.2371,287.263,198.961,0,0,0,3,0,0,0,198.961,182.1037,1.2083,-16.8574,20,
126,1,8,2,470,0,47.4036,226.9278,196.8734,0,0,0,2,0,0,0,226.9278,218.5412,1.2153,-8.3866,30,
126,1,8,2,471,1,168.2621,196.2785,258.3801,2,1,3,2,1,0,0,196.2785,218.3454,1.243,22.0668,10,
126,1,8,2,472,1,289.9849,259.9998,16.4842,1,3,2,1,1,0,0,289.9849,148.0339,0.75688,-141.9511,0,
126,1,8,2,473,1,167.581,138.1224,317.5237,3,1,2,3,1,0,0,317.5237,303.1866,0.66651,-14.3371,20,
126,1,8,2,474,1,256.1117,49.3781,79.2638,2,1,3,2,1,0,0,49.3781,66.2813,1.0971,16.9032,20,
126,1,8,2,475,0,195.0227,229.2784,139.2391,0,0,0,2,0,0,0,229.2784,221.3554,1.4166,-7.923,30,
126,1,8,2,476,1,75.0665,106.7423,196.0712,1,3,2,3,0,1,0,196.0712,NaN,100000,999,0,
126,1,8,2,477,1,349.2347,316.4023,77.0092,2,1,3,2,1,0,0,316.4023,307.5233,1.2986,-8.879,30,
126,1,8,2,478,1,345.7122,315.4632,229.5866,1,2,3,1,1,0,0,345.7122,152.0051,1.0137,166.2929,0,
126,1,8,2,479,1,135.8834,166.9791,77.0121,1,3,2,1,1,0,0,135.8834,148.0428,0.9166,12.1594,20,
126,1,8,2,480,0,107.2625,256.036,225.5344,0,0,0,3,0,0,0,225.5344,239.9717,1.5901,14.4372,20,
