Subject,Session,Block,Condition,Trial,whetherCued,leftStim,rightStim,midStim,remCueLoc,fogCueLoc,neutralCueLoc,probeCueLoc,probeRem,probeForget,probeNeutral,Target,Estimate,RT,Error,Points
123,1,1,1,1,1,285.3167,75.3195,349.6993,2,3,1,2,1,0,0,75.3195,69.0898,1.2425,-6.2297,30,
123,1,1,1,2,0,317.7602,47.7922,225.3341,0,0,0,2,0,0,0,47.7922,63.6063,1.6184,15.8141,20,
123,1,1,1,3,1,345.9818,317.6386,285.7384,3,1,2,1,0,1,0,345.9818,241.756,2.1735,-104.2259,0,
123,1,1,1,4,1,15.6096,196.4513,135.3117,1,2,3,1,1,0,0,15.6096,21.3693,1.9929,5.7597,30,
123,1,1,1,5,1,46.0894,18.765,77.5992,3,1,2,3,1,0,0,77.5992,64.5539,1.7359,-13.0453,20,
123,1,1,1,6,1,136.9584,228.1068,79.8258,1,2,3,1,1,0,0,136.9584,358.9326,1.5625,-138.0258,0,
123,1,1,1,7,0,289.1912,319.5068,107.2497,0,0,0,1,0,0,0,289.1912,11.82,2.7916,82.6288,0,
123,1,1,1,8,1,49.572,257.4728,198.5512,2,1,3,2,1,0,0,257.4728,260.6554,1.9235,3.1827,30,
123,1,1,1,9,0,165.1693,347.2055,255.6489,0,0,0,3,0,0,0,255.6489,262.252,3.7283,6.6031,30,
123,1,1,1,10,0,228.007,199.7351,258.1561,0,0,0,3,0,0,0,258.1561,253.1589,2.0486,-4.9971,30,
123,1,1,1,11,1,47.5178,139.5352,315.6181,2,3,1,3,0,1,0,315.6181,72.7526,2.3471,117.1345,0,
123,1,1,1,12,1,48.1707,168.8863,199.4925,3,2,1,3,1,0,0,199.4925,226.796,1.9513,27.3035,10,
123,1,1,1,13,1,45.8059,17.0895,196.8453,1,2,3,1,1,0,0,45.8059,55.1631,1.7984,9.3573,30,
123,1,1,1,14,1,226.5243,18.8994,167.4361,2,1,3,2,1,0,0,18.8994,29.432,1.861,10.5327,30,
123,1,1,1,15,1,107.2871,288.6659,137.7912,3,2,1,2,0,1,0,288.6659,58.8693,1.9582,130.2034,0,
123,1,1,1,16,1,345.9916,285.1034,258.9614,2,3,1,1,0,0,1,345.9916,93.23,2.6184,107.2383,0,
123,1,1,1,17,0,17.4427,165.3267,137.2849,0,0,0,1,0,0,0,17.4427,306.4566,2.4372,-70.9861,0,
123,1,1,1,18,1,225.5959,45.6461,285.3898,2,1,3,2,1,0,0,45.6461,44.2299,1.5902,-1.4162,40,
123,1,1,1,19,0,345.5065,167.3447,108.5532,0,0,0,1,0,0,0,345.5065,321.8866,3.2151,-23.62,10,
123,1,1,1,20,1,195.0114,49.7227,228.9624,1,3,2,1,1,0,0,195.0114,196.9668,2.0414,1.9553,40,
123,1,1,1,21,1,318.2166,139.1068,106.8927,2,3,1,1,0,0,1,318.2166,346.1496,2.7707,27.933,10,
123,1,1,1,22,0,18.1388,289.0957,195.9448,0,0,0,2,0,0,0,289.0957,79.5822,3.181,150.4866,0,
123,1,1,1,23,0,229.4223,166.7051,346.0256,0,0,0,1,0,0,0,229.4223,277.6335,2.2985,48.2112,0,
123,1,1,1,24,1,49.0602,75.163,347.0752,3,1,2,3,1,0,0,347.0752,334.5745,1.6249,-12.5007,20,
123,1,1,1,25,0,346.1367,139.5344,49.3449,0,0,0,3,0,0,0,49.3449,53.1617,2.736,3.8168,30,
123,1,1,1,26,1,77.8374,108.2883,348.4279,2,1,3,1,0,1,0,77.8374,90.203,1.7291,12.3656,20,
123,1,1,1,27,1,77.0033,256.8647,17.2163,1,3,2,1,1,0,0,77.0033,88.5776,2.1179,11.5743,30,
123,1,1,1,28,1,288.4182,45.772,199.8716,2,1,3,3,0,0,1,199.8716,227.242,2.4722,27.3705,10,
123,1,1,1,29,1,255.4666,286.0334,316.5138,1,2,3,2,0,1,0,286.0334,277.0628,2.6804,-8.9706,30,
123,1,1,1,30,0,167.4432,225.3904,107.6503,0,0,0,3,0,0,0,107.6503,131.5912,2.604,23.9409,10,
123,1,1,1,31,0,348.6538,109.5044,167.3202,0,0,0,1,0,0,0,348.6538,348.8718,3.6734,0.21804,40,
123,1,1,1,32,1,255.7227,348.6468,197.4114,1,3,2,1,1,0,0,255.7227,283.2543,1.7568,27.5316,10,
123,1,1,1,33,1,106.2995,48.3854,347.5991,1,2,3,3,0,0,1,347.5991,61.9509,3.5068,74.3518,0,
123,1,1,1,34,1,48.8653,16.9624,78.0265,1,3,2,1,1,0,0,48.8653,10.0717,2.5628,-38.7935,0,
123,1,1,1,35,0,75.5347,288.3139,139.7729,0,0,0,3,0,0,0,139.7729,138.6897,2.4374,-1.0832,40,
123,1,1,1,36,1,229.6057,109.4654,319.9859,1,3,2,3,0,1,0,319.9859,306.9034,2.5344,-13.0824,20,
123,1,1,1,37,1,259.233,18.9726,109.5014,3,1,2,3,1,0,0,109.5014,291.1224,1.4166,-178.379,0,
123,1,1,1,38,0,256.0912,315.4982,168.0975,0,0,0,3,0,0,0,168.0975,169.6435,3.2429,1.546,40,
123,1,1,1,39,0,165.5577,17.8966,139.3519,0,0,0,2,0,0,0,17.8966,31.5024,2.5345,13.6057,20,
123,1,1,1,40,1,139.5455,346.0382,196.9103,1,2,3,2,0,1,0,346.0382,351.8535,2.8055,5.8153,30,
123,1,1,1,41,1,226.8033,199.4036,348.7218,1,2,3,2,0,1,0,199.4036,347.3835,2.1949,147.9799,0,
123,1,1,1,42,0,258.5107,76.1986,169.7974,0,0,0,3,0,0,0,169.7974,180.6935,3.2359,10.8961,30,
123,1,1,1,43,1,46.1226,316.3501,257.0922,1,2,3,1,1,0,0,46.1226,181.5344,4.0066,135.4118,0,
123,1,1,1,44,1,138.3904,287.1424,258.274,3,1,2,3,1,0,0,258.274,271.0565,1.8817,12.7825,20,
123,1,1,1,45,0,286.8174,107.1734,348.438,0,0,0,2,0,0,0,107.1734,105.4439,2.3331,-1.7295,40,
123,1,1,1,46,1,15.6333,107.5663,138.5797,2,3,1,2,1,0,0,107.5663,64.3779,3.3608,-43.1885,0,
123,1,1,1,47,1,257.6019,319.4264,18.2413,1,2,3,1,1,0,0,257.6019,181.8924,3.1115,-75.7095,0,
123,1,1,1,48,0,46.4256,137.6475,317.7992,0,0,0,1,0,0,0,46.4256,263.5866,4.1733,-142.8389,0,
123,1,1,1,49,0,348.2232,319.9007,165.5086,0,0,0,2,0,0,0,319.9007,128.0867,1.854,168.186,0,
123,1,1,1,50,1,49.2794,288.072,15.5871,3,1,2,3,1,0,0,15.5871,22.7324,1.9582,7.1453,30,
123,1,1,1,51,1,315.4042,227.0562,48.5632,3,2,1,3,1,0,0,48.5632,22.6486,1.972,-25.9146,10,
123,1,1,1,52,0,258.014,17.9574,166.1263,0,0,0,1,0,0,0,258.014,226.4103,2.1943,-31.6038,0,
123,1,1,1,53,1,46.9871,225.5229,135.9693,3,2,1,3,1,0,0,135.9693,142.8999,2.3403,6.9307,30,
123,1,1,1,54,1,316.1599,105.8405,255.1336,2,3,1,2,1,0,0,105.8405,110.2752,1.6943,4.4346,30,
123,1,1,1,55,1,137.1783,255.6832,346.4986,3,1,2,3,1,0,0,346.4986,164.72,3.5414,178.2214,0,
123,1,1,1,56,1,226.1171,48.3665,259.0939,3,1,2,3,1,0,0,259.0939,246.5888,1.7083,-12.5051,20,
123,1,1,1,57,0,167.0201,195.2052,76.4691,0,0,0,3,0,0,0,76.4691,101.0247,2.0416,24.5555,10,
123,1,1,1,58,1,17.6756,106.6678,139.2734,3,1,2,1,0,1,0,17.6756,260.3919,2.1735,-117.2837,0,
123,1,1,1,59,1,168.6383,19.2866,139.9592,3,1,2,2,0,0,1,19.2866,34.7913,3.6316,15.5047,20,
123,1,1,1,60,0,109.1686,49.0772,256.6198,0,0,0,2,0,0,0,49.0772,36.9383,1.8125,-12.1389,20,
123,1,2,1,61,1,135.2687,168.1844,109.8019,2,1,3,2,1,0,0,168.1844,143.3953,1.7985,-24.7891,10,
123,1,2,1,62,1,198.5914,169.7232,105.4389,3,1,2,3,1,0,0,105.4389,119.3392,1.7499,13.9002,20,
123,1,2,1,63,1,166.5304,259.8329,315.6497,1,3,2,2,0,0,1,259.8329,247.848,3.6872,-11.9849,30,
123,1,2,1,64,1,348.519,288.9045,17.8242,1,3,2,1,1,0,0,348.519,15.0798,2.6393,26.5608,10,
123,1,2,1,65,1,47.4122,17.1561,228.4941,3,1,2,3,1,0,0,228.4941,226.7938,2.0206,-1.7003,40,
123,1,2,1,66,1,48.834,319.4916,78.8341,2,3,1,2,1,0,0,319.4916,312.3424,2.3402,-7.1492,30,
123,1,2,1,67,0,259.652,137.2348,49.1694,0,0,0,3,0,0,0,49.1694,72.0785,5.6037,22.9091,10,
123,1,2,1,68,0,77.4526,227.0373,345.4197,0,0,0,2,0,0,0,227.0373,197.5444,3.0761,-29.4928,10,
123,1,2,1,69,0,107.4171,288.4239,317.4001,0,0,0,3,0,0,0,317.4001,299.408,2.1178,-17.9921,20,
123,1,2,1,70,0,106.8887,256.3605,45.6265,0,0,0,1,0,0,0,106.8887,120.0783,5.2773,13.1895,20,
123,1,2,1,71,1,76.054,256.3269,109.9659,2,1,3,2,1,0,0,256.3269,263.6698,2.9512,7.3429,30,
123,1,2,1,72,1,256.552,16.7177,75.3811,1,2,3,3,0,0,1,75.3811,284.0669,2.6943,-151.3143,0,
123,1,2,1,73,1,107.8588,347.9646,138.4931,3,2,1,1,0,0,1,107.8588,264.5431,2.7498,156.6843,0,
123,1,2,1,74,0,137.135,109.5651,19.4866,0,0,0,2,0,0,0,109.5651,317.7926,2.7844,-151.7724,0,
123,1,2,1,75,1,286.221,47.191,168.6755,2,3,1,2,1,0,0,47.191,47.3204,1.7499,0.12944,40,
123,1,2,1,76,0,318.3402,105.7629,255.3135,0,0,0,1,0,0,0,318.3402,315.7496,2.7776,-2.5906,40,
123,1,2,1,77,0,106.6075,289.4992,167.7106,0,0,0,2,0,0,0,289.4992,309.7949,3.1318,20.2957,20,
123,1,2,1,78,1,316.3664,228.7335,77.4394,2,3,1,2,1,0,0,228.7335,222.2883,1.7707,-6.4452,30,
123,1,2,1,79,0,108.9941,167.0244,137.4118,0,0,0,3,0,0,0,137.4118,125.1973,2.3402,-12.2145,20,
123,1,2,1,80,1,228.6191,18.284,77.5739,3,1,2,1,0,1,0,228.6191,211.5183,1.979,-17.1008,20,
123,1,2,1,81,1,349.2665,317.3364,49.1836,3,2,1,3,1,0,0,49.1836,30.3797,2.0832,-18.8039,20,
123,1,2,1,82,1,317.5743,19.9949,76.8866,3,1,2,3,1,0,0,76.8866,40.9701,1.9234,-35.9166,0,
123,1,2,1,83,0,106.4416,15.825,77.2793,0,0,0,1,0,0,0,106.4416,126.3382,3.6247,19.8966,20,
123,1,2,1,84,1,46.3343,225.3428,16.568,2,3,1,1,0,0,1,46.3343,31.826,3.5483,-14.5083,20,
123,1,2,1,85,0,106.3698,138.2755,77.0353,0,0,0,1,0,0,0,106.3698,124.4331,4.6038,18.0633,20,
123,1,2,1,86,1,229.4564,256.0814,18.4177,3,2,1,3,1,0,0,18.4177,10.4488,2.3609,-7.9689,30,
123,1,2,1,87,0,47.0084,136.669,256.3379,0,0,0,3,0,0,0,256.3379,42.8992,3.09,146.5612,0,
123,1,2,1,88,0,165.9694,259.0404,49.9282,0,0,0,3,0,0,0,49.9282,26.0292,2.3818,-23.899,10,
123,1,2,1,89,0,286.3771,227.098,17.985,0,0,0,2,0,0,0,227.098,233.0024,6.4931,5.9044,30,
123,1,2,1,90,1,165.3123,15.8923,106.6913,3,2,1,3,1,0,0,106.6913,116.6469,3.2915,9.9556,30,
123,1,2,1,91,0,47.5111,168.683,225.5606,0,0,0,1,0,0,0,47.5111,206.6626,3.1596,159.1515,0,
123,1,2,1,92,1,76.4371,229.5997,165.0303,1,3,2,1,1,0,0,76.4371,63.603,2.0832,-12.834,20,
123,1,2,1,93,1,105.6268,287.1495,255.0818,1,3,2,1,1,0,0,105.6268,104.8129,2.3193,-0.81396,40,
123,1,2,1,94,0,226.0151,18.975,199.8729,0,0,0,2,0,0,0,18.975,41.1012,2.1735,22.1262,10,
123,1,2,1,95,1,257.4089,287.2294,198.9909,2,3,1,2,1,0,0,287.2294,299.5823,2.5352,12.3529,20,
123,1,2,1,96,1,345.3147,139.6001,199.5308,2,3,1,1,0,0,1,345.3147,318.6073,2.0346,-26.7074,10,
123,1,2,1,97,0,257.2098,349.198,168.0913,0,0,0,3,0,0,0,168.0913,156.858,3.6456,-11.2333,30,
123,1,2,1,98,1,285.0765,318.7534,75.3106,3,2,1,3,1,0,0,75.3106,210.0466,2.6734,134.736,0,
123,1,2,1,99,1,196.6344,135.5152,166.8521,1,2,3,1,1,0,0,196.6344,204.2888,1.493,7.6544,30,
123,1,2,1,100,0,256.9666,17.1023,225.6856,0,0,0,3,0,0,0,225.6856,226.0209,2.1249,0.3353,40,
123,1,2,1,101,1,48.808,348.2557,16.7554,2,1,3,3,0,0,1,16.7554,159.4167,3.8261,142.6613,0,
123,1,2,1,102,1,196.7117,317.8315,258.2726,2,1,3,2,1,0,0,317.8315,348.2797,2.201,30.4482,0,
123,1,2,1,103,0,109.5259,166.3226,229.7491,0,0,0,2,0,0,0,166.3226,11.9686,3.1941,-154.3541,0,
123,1,2,1,104,0,49.6735,226.8027,199.7386,0,0,0,1,0,0,0,49.6735,43.7989,3.1664,-5.8746,30,
123,1,2,1,105,0,17.5412,259.2672,48.419,0,0,0,2,0,0,0,259.2672,287.4474,2.9166,28.1802,10,
123,1,2,1,106,1,76.3878,165.5043,317.4946,1,3,2,1,1,0,0,76.3878,85.3158,3.5137,8.928,30,
123,1,2,1,107,0,317.5248,288.6106,258.8055,0,0,0,2,0,0,0,288.6106,317.9208,2.9163,29.3103,10,
123,1,2,1,108,0,225.586,76.8997,48.8242,0,0,0,2,0,0,0,76.8997,53.4526,2.5212,-23.4471,10,
123,1,2,1,109,0,105.5768,227.506,289.0846,0,0,0,1,0,0,0,105.5768,84.0822,3.715,-21.4947,10,
123,1,2,1,110,1,77.625,287.6556,349.3669,1,2,3,1,1,0,0,77.625,89.2887,1.5416,11.6637,30,
123,1,2,1,111,1,48.7756,137.6306,169.2506,2,1,3,1,0,1,0,48.7756,81.4323,2.465,32.6567,0,
123,1,2,1,112,1,196.7002,228.3195,48.6368,2,1,3,2,1,0,0,228.3195,230.8253,2.1179,2.5059,40,
123,1,2,1,113,0,15.5643,198.2512,75.9544,0,0,0,1,0,0,0,15.5643,7.1615,4.1733,-8.4028,30,
123,1,2,1,114,0,228.9358,345.9675,77.6546,0,0,0,3,0,0,0,77.6546,72.3389,2.2776,-5.3157,30,
123,1,2,1,115,0,258.7655,168.5152,106.2331,0,0,0,3,0,0,0,106.2331,113.3877,2.5548,7.1546,30,
123,1,2,1,116,0,15.5148,79.4181,107.6112,0,0,0,1,0,0,0,15.5148,15.7993,2.5415,0.28448,40,
123,1,2,1,117,1,109.1522,198.3681,315.6973,2,3,1,2,1,0,0,198.3681,180.6053,3.2151,-17.7628,20,
123,1,2,1,118,0,256.5109,226.4726,136.2991,0,0,0,2,0,0,0,226.4726,209.6257,2.3263,-16.8469,20,
123,1,2,1,119,0,285.2877,135.1063,76.449,0,0,0,2,0,0,0,135.1063,119.6417,3.5345,-15.4646,20,
123,1,2,1,120,1,346.9215,226.6007,256.9667,2,1,3,2,1,0,0,226.6007,233.9067,2.6317,7.306,30,
123,1,3,2,121,0,259.1155,19.3721,79.9918,0,0,0,3,0,0,0,79.9918,47.7873,2.5552,-32.2044,0,
123,1,3,2,122,1,228.6716,19.9273,318.4939,1,2,3,2,0,1,0,19.9273,NaN,100000,999,0,
123,1,3,2,123,0,16.7771,137.1919,319.5439,0,0,0,3,0,0,0,319.5439,323.7288,1.7916,4.1849,30,
123,1,3,2,124,0,196.9012,286.0929,108.6133,0,0,0,2,0,0,0,286.0929,317.0347,2.611,30.9418,0,
123,1,3,2,125,1,195.0869,317.356,255.2304,2,1,3,2,1,0,0,317.356,307.1306,2.076,-10.2255,30,
123,1,3,2,126,1,137.7151,286.7856,48.308,1,3,2,1,1,0,0,137.7151,125.7728,1.8957,-11.9423,30,
123,1,3,2,127,1,46.9945,226.2444,289.6767,3,2,1,3,1,0,0,289.6767,294.1903,1.9304,4.5137,30,
123,1,3,2,128,0,168.1491,257.3251,135.5459,0,0,0,2,0,0,0,257.3251,254.1009,2.1942,-3.2242,30,
123,1,3,2,129,1,289.1691,198.0293,47.5896,2,3,1,2,1,0,0,198.0293,210.4235,3.6873,12.3942,20,
123,1,3,2,130,1,285.1747,348.8566,257.7026,3,1,2,2,0,0,1,348.8566,242.0496,2.5137,-106.807,0,
123,1,3,2,131,0,199.1453,256.9438,225.8421,0,0,0,2,0,0,0,256.9438,237.6449,3.8197,-19.2989,20,
123,1,3,2,132,1,317.7223,195.411,107.9906,2,1,3,2,1,0,0,195.411,204.9636,2.111,9.5526,30,
123,1,3,2,133,1,18.1363,286.0297,259.9009,1,3,2,2,0,0,1,286.0297,291.7136,3.3192,5.6839,30,
123,1,3,2,134,1,136.3179,105.8739,316.8431,3,2,1,2,0,1,0,105.8739,NaN,100000,999,0,
123,1,3,2,135,0,136.8066,257.35,315.2939,0,0,0,3,0,0,0,315.2939,301.4421,1.6943,-13.8518,20,
123,1,3,2,136,0,135.5589,287.4592,77.3078,0,0,0,1,0,0,0,135.5589,156.0053,2.4721,20.4463,20,
123,1,3,2,137,0,77.4983,227.9224,259.6238,0,0,0,3,0,0,0,259.6238,111.285,2.9165,-148.3388,0,
123,1,3,2,138,1,135.4817,15.6564,288.0495,1,3,2,1,1,0,0,135.4817,143.1291,1.4513,7.6474,30,
123,1,3,2,139,1,165.5533,138.2034,195.3601,3,1,2,3,1,0,0,195.3601,203.7827,1.8187,8.4226,30,
123,1,3,2,140,0,226.3889,105.4855,258.9141,0,0,0,1,0,0,0,226.3889,206.0959,1.7429,-20.2929,20,
123,1,3,2,141,1,316.1998,229.638,138.8149,2,1,3,3,0,0,1,138.8149,153.0994,2.4373,14.2845,20,
123,1,3,2,142,1,228.7839,289.0142,349.0156,3,2,1,2,0,1,0,289.0142,NaN,100000,999,0,
123,1,3,2,143,1,47.9719,285.7687,315.3131,2,1,3,3,0,0,1,315.3131,319.5583,1.3958,4.2452,30,
123,1,3,2,144,1,15.9456,345.3543,285.1893,1,2,3,1,1,0,0,15.9456,1.8085,3.0484,-14.1371,20,
123,1,3,2,145,0,257.1512,169.3563,318.5363,0,0,0,2,0,0,0,169.3563,347.3004,2.6041,177.9441,0,
123,1,3,2,146,1,15.2378,49.0018,227.3339,1,3,2,1,1,0,0,15.2378,8.7012,3.0131,-6.5366,30,
123,1,3,2,147,0,316.2021,46.0129,226.7411,0,0,0,1,0,0,0,316.2021,337.9352,2.7012,21.733,10,
123,1,3,2,148,1,45.168,78.0781,195.5609,2,3,1,2,1,0,0,78.0781,59.3107,1.6596,-18.7674,20,
123,1,3,2,149,1,79.0614,18.3341,46.9089,2,1,3,2,1,0,0,18.3341,31.8296,2.6803,13.4954,20,
123,1,3,2,150,1,75.1898,319.612,256.8657,3,1,2,1,0,1,0,75.1898,NaN,100000,999,0,
123,1,3,2,151,1,105.108,136.7051,196.922,2,3,1,2,1,0,0,136.7051,356.3314,1.7013,-140.3737,0,
123,1,3,2,152,1,195.0824,15.7627,109.4977,1,2,3,1,1,0,0,195.0824,196.1315,2.6249,1.0491,40,
123,1,3,2,153,1,49.6062,18.9082,286.2096,2,1,3,2,1,0,0,18.9082,29.8956,1.479,10.9874,30,
123,1,3,2,154,0,347.6564,78.106,46.4017,0,0,0,2,0,0,0,78.106,40.378,1.5138,-37.728,0,
123,1,3,2,155,0,288.4209,108.74,16.9582,0,0,0,3,0,0,0,16.9582,24.9563,1.9373,7.9981,30,
123,1,3,2,156,1,198.8892,137.8473,165.1055,3,2,1,3,1,0,0,165.1055,331.191,1.4999,166.0855,0,
123,1,3,2,157,0,75.1113,106.5056,346.4903,0,0,0,3,0,0,0,346.4903,338.8648,1.486,-7.6255,30,
123,1,3,2,158,1,165.0545,49.0987,195.1713,3,2,1,3,1,0,0,195.1713,337.924,1.2847,142.7527,0,
123,1,3,2,159,1,109.1325,285.0534,255.4778,3,2,1,3,1,0,0,255.4778,246.6007,1.6319,-8.8771,30,
123,1,3,2,160,0,285.6432,316.1039,257.2678,0,0,0,3,0,0,0,257.2678,263.6936,2.2157,6.4258,30,
123,1,3,2,161,1,106.1674,46.4605,138.3688,2,1,3,2,1,0,0,46.4605,43.3373,1.2155,-3.1232,30,
123,1,3,2,162,1,318.877,196.767,139.1947,3,2,1,3,1,0,0,139.1947,111.7801,1.8888,-27.4147,10,
123,1,3,2,163,1,317.6756,17.5867,76.2786,1,3,2,3,0,1,0,76.2786,NaN,100000,999,0,
123,1,3,2,164,1,79.5412,286.426,255.6635,3,1,2,3,1,0,0,255.6635,240.6725,1.3263,-14.991,20,
123,1,3,2,165,1,19.3541,226.667,47.3152,2,1,3,2,1,0,0,226.667,221.0338,2.611,-5.6332,30,
123,1,3,2,166,1,347.7523,287.8153,316.523,3,2,1,3,1,0,0,316.523,319.7372,1.1041,3.2142,30,
123,1,3,2,167,1,288.0835,346.0155,108.388,3,2,1,3,1,0,0,108.388,280.4125,0.99992,172.0245,0,
123,1,3,2,168,1,228.9714,17.4431,165.6529,2,1,3,2,1,0,0,17.4431,31.7081,1.0277,14.2651,20,
123,1,3,2,169,1,197.16,259.6526,137.5394,1,3,2,1,1,0,0,197.16,184.4461,1.4785,-12.7139,20,
123,1,3,2,170,1,286.7386,18.3336,197.2723,2,3,1,2,1,0,0,18.3336,31.5751,1.4513,13.2415,20,
123,1,3,2,171,0,45.0451,345.8454,256.0319,0,0,0,3,0,0,0,256.0319,241.3074,1.5624,-14.7246,20,
123,1,3,2,172,1,76.3501,257.4088,286.1034,3,2,1,3,1,0,0,286.1034,295.8991,0.98615,9.7957,30,
123,1,3,2,173,1,348.0693,226.4195,287.5407,2,3,1,2,1,0,0,226.4195,225.7387,3.0485,-0.68082,40,
123,1,3,2,174,1,47.3497,198.9559,107.0938,3,1,2,3,1,0,0,107.0938,291.5364,1.4097,-175.5575,0,
123,1,3,2,175,1,139.5776,257.6101,315.2598,3,1,2,1,0,1,0,139.5776,NaN,100000,999,0,
123,1,3,2,176,1,317.2746,198.2531,169.5221,3,1,2,1,0,1,0,317.2746,NaN,100000,999,0,
123,1,3,2,177,1,78.0946,289.8516,108.346,2,1,3,2,1,0,0,289.8516,297.3943,2.7776,7.5427,30,
123,1,3,2,178,0,77.5057,315.7093,347.0319,0,0,0,2,0,0,0,315.7093,325.3753,2.1319,9.666,30,
123,1,3,2,179,1,169.1646,347.5077,255.5137,1,3,2,1,1,0,0,169.1646,157.031,1.7221,-12.1335,20,
123,1,3,2,180,0,315.7681,196.5423,75.6546,0,0,0,3,0,0,0,75.6546,282.2006,2.0347,-153.454,0,
123,1,4,2,181,0,168.0693,198.2604,318.0067,0,0,0,1,0,0,0,168.0693,171.127,1.6524,3.0577,30,
123,1,4,2,182,0,226.9859,346.3891,136.8093,0,0,0,2,0,0,0,346.3891,341.8802,2.41,-4.5088,30,
123,1,4,2,183,1,108.2279,77.5562,318.3105,2,1,3,2,1,0,0,77.5562,58.9294,1.2707,-18.6268,20,
123,1,4,2,184,1,226.3128,75.3932,316.1006,2,3,1,3,0,1,0,316.1006,NaN,100000,999,0,
123,1,4,2,185,1,225.0231,195.9423,138.8982,2,1,3,2,1,0,0,195.9423,194.1922,2.354,-1.7501,40,
123,1,4,2,186,1,288.3429,137.1089,198.5138,1,3,2,1,1,0,0,288.3429,1.6443,2.9095,73.3014,0,
123,1,4,2,187,0,346.2418,138.6184,227.1619,0,0,0,1,0,0,0,346.2418,135.6407,4.2914,149.3989,0,
123,1,4,2,188,1,136.522,316.7142,48.2967,2,1,3,1,0,1,0,136.522,NaN,100000,999,0,
123,1,4,2,189,0,18.38,319.3721,136.6547,0,0,0,2,0,0,0,319.3721,316.7028,2.5623,-2.6693,40,
123,1,4,2,190,1,345.7102,136.0875,288.8873,2,1,3,2,1,0,0,136.0875,138.9738,2.659,2.8863,40,
123,1,4,2,191,1,46.6209,345.8303,319.9904,2,3,1,3,0,1,0,319.9904,NaN,100000,999,0,
123,1,4,2,192,0,227.2501,195.8128,168.8246,0,0,0,2,0,0,0,195.8128,192.0395,2.1665,-3.7732,30,
123,1,4,2,193,0,137.7538,45.1055,348.6839,0,0,0,2,0,0,0,45.1055,29.5582,1.4651,-15.5473,20,
123,1,4,2,194,0,225.8808,76.1622,348.5751,0,0,0,1,0,0,0,225.8808,194.0916,1.4443,-31.7893,0,
123,1,4,2,195,1,165.3812,286.8469,259.0312,3,2,1,3,1,0,0,259.0312,261.3616,1.7291,2.3304,40,
123,1,4,2,196,1,285.8175,136.6198,319.0451,1,3,2,1,1,0,0,285.8175,260.0443,2.0554,-25.7732,10,
123,1,4,2,197,1,256.5306,136.4539,17.1526,3,1,2,1,0,1,0,256.5306,NaN,100000,999,0,
123,1,4,2,198,1,168.5928,137.1222,46.2418,3,1,2,3,1,0,0,46.2418,47.1822,1.5832,0.9404,40,
123,1,4,2,199,0,109.2626,289.9196,255.2693,0,0,0,1,0,0,0,109.2626,129.8635,2.3054,20.6009,20,
123,1,4,2,200,1,136.6332,196.8498,317.464,3,1,2,2,0,0,1,196.8498,162.9128,3.0067,-33.937,0,
123,1,4,2,201,0,15.2638,49.8001,228.361,0,0,0,1,0,0,0,15.2638,4.7854,3.6595,-10.4784,30,
123,1,4,2,202,0,169.6403,19.403,288.0954,0,0,0,2,0,0,0,19.403,22.367,1.9721,2.964,40,
123,1,4,2,203,0,107.8175,135.7213,349.2803,0,0,0,1,0,0,0,107.8175,39.125,3.1456,-68.6925,0,
123,1,4,2,204,0,17.5607,137.5771,197.3447,0,0,0,3,0,0,0,197.3447,221.1183,2.1096,23.7736,10,
123,1,4,2,205,1,15.3174,137.9558,49.4988,2,3,1,1,0,0,1,15.3174,16.8975,3.4581,1.5801,40,
123,1,4,2,206,1,257.6961,289.6863,136.2781,2,3,1,2,1,0,0,289.6863,262.0708,2.0693,-27.6155,10,
123,1,4,2,207,0,228.2249,256.091,138.4745,0,0,0,3,0,0,0,138.4745,135.818,2.9234,-2.6565,40,
123,1,4,2,208,1,19.1114,286.5951,318.2852,1,3,2,1,1,0,0,19.1114,2.5636,3.3679,-16.5478,20,
123,1,4,2,209,1,108.1345,49.2601,77.4513,2,1,3,2,1,0,0,49.2601,55.2443,1.5972,5.9842,30,
123,1,4,2,210,1,18.7848,106.6625,229.4028,1,3,2,1,1,0,0,18.7848,5.4882,2.1532,-13.2966,20,
123,1,4,2,211,1,108.9877,198.9369,255.4779,2,3,1,2,1,0,0,198.9369,198.2385,2.1319,-0.69843,40,
123,1,4,2,212,1,287.6485,16.1093,108.7409,2,1,3,2,1,0,0,16.1093,202.4763,2.0067,-173.633,0,
123,1,4,2,213,1,105.0812,136.0001,199.2925,3,2,1,1,0,0,1,105.0812,103.0064,1.8609,-2.0748,40,
123,1,4,2,214,0,15.0584,198.6422,47.0765,0,0,0,3,0,0,0,47.0765,21.002,1.6875,-26.0745,10,
123,1,4,2,215,0,79.6144,317.3332,16.8441,0,0,0,3,0,0,0,16.8441,27.2603,1.6527,10.4162,30,
123,1,4,2,216,0,46.5986,198.3553,347.6198,0,0,0,2,0,0,0,198.3553,204.1745,2.2083,5.8192,30,
123,1,4,2,217,0,75.0974,348.0374,167.694,0,0,0,2,0,0,0,348.0374,340.2217,1.861,-7.8157,30,
123,1,4,2,218,0,229.3881,318.0286,348.2341,0,0,0,1,0,0,0,229.3881,242.506,2.0763,13.1179,20,
123,1,4,2,219,1,255.3654,18.7902,135.2536,3,2,1,1,0,0,1,255.3654,256.5842,2.7568,1.2188,40,
123,1,4,2,220,0,319.0146,258.651,168.9736,0,0,0,3,0,0,0,168.9736,168.0668,2.0138,-0.90681,40,
123,1,4,2,221,1,316.7372,75.6977,286.0812,2,1,3,2,1,0,0,75.6977,60.0955,1.0278,-15.6022,20,
123,1,4,2,222,0,45.1275,316.1684,259.8939,0,0,0,1,0,0,0,45.1275,179.6287,1.1389,134.5013,0,
123,1,4,2,223,1,75.7855,108.128,139.6292,1,3,2,2,0,0,1,108.128,326.9445,1.8471,-141.1835,0,
123,1,4,2,224,1,196.5227,258.358,346.0222,3,1,2,3,1,0,0,346.0222,341.0905,1.3472,-4.9317,30,
123,1,4,2,225,1,48.9004,168.5124,227.1034,1,2,3,1,1,0,0,48.9004,56.0584,2.1248,7.158,30,
123,1,4,2,226,1,317.9409,46.2309,196.9919,3,1,2,3,1,0,0,196.9919,210.1702,1.7152,13.1782,20,
123,1,4,2,227,1,225.3126,345.1289,316.6706,1,3,2,1,1,0,0,225.3126,213.7246,1.6041,-11.588,30,
123,1,4,2,228,0,286.9961,135.3096,166.4648,0,0,0,3,0,0,0,166.4648,29.9328,1.6875,-136.532,0,
123,1,4,2,229,0,229.791,79.0882,287.1195,0,0,0,2,0,0,0,79.0882,55.5397,1.7499,-23.5486,10,
123,1,4,2,230,1,256.2072,168.4799,195.0763,2,1,3,1,0,1,0,256.2072,NaN,100000,999,0,
123,1,4,2,231,1,315.0164,255.2243,165.9456,2,3,1,2,1,0,0,255.2243,234.9171,3.1803,-20.3072,20,
123,1,4,2,232,1,346.3173,229.9929,18.5527,2,3,1,2,1,0,0,229.9929,234.8365,1.9305,4.8435,30,
123,1,4,2,233,0,196.3801,76.5574,288.3328,0,0,0,1,0,0,0,196.3801,202.6718,1.7152,6.2917,30,
123,1,4,2,234,1,137.227,347.3276,318.6834,2,3,1,3,0,1,0,318.6834,NaN,100000,999,0,
123,1,4,2,235,1,109.2114,78.9399,257.6819,1,3,2,1,1,0,0,109.2114,180,0.68054,70.7886,0,
123,1,4,2,236,1,19.2867,228.0358,255.9856,1,2,3,1,1,0,0,19.2867,180,0.72913,160.7133,0,
123,1,4,2,237,1,139.962,18.3997,349.6745,3,1,2,1,0,1,0,139.962,NaN,100000,999,0,
123,1,4,2,238,1,106.4416,225.9318,259.7367,3,2,1,2,0,1,0,225.9318,NaN,100000,999,0,
123,1,4,2,239,1,108.8845,315.6691,48.501,1,2,3,1,1,0,0,108.8845,180.2918,2.4998,71.4073,0,
123,1,4,2,240,0,76.7845,165.5625,256.2754,0,0,0,3,0,0,0,256.2754,256.2049,2.9165,-0.070524,40,
123,1,5,2,241,1,228.2911,16.305,196.4227,1,3,2,2,0,0,1,16.305,20.2818,1.4515,3.9768,30,
123,1,5,2,242,0,227.3688,79.2558,19.6459,0,0,0,3,0,0,0,19.6459,28.8519,2.048,9.206,30,
123,1,5,2,243,1,16.426,259.5793,288.3534,2,3,1,1,0,0,1,16.426,21.0908,3.84,4.6648,30,
123,1,5,2,244,0,229.6716,108.9759,77.2713,0,0,0,2,0,0,0,108.9759,69.7093,2.7082,-39.2666,0,
123,1,5,2,245,1,259.5596,136.7567,46.8618,3,2,1,3,1,0,0,46.8618,27.3867,2.3748,-19.4751,20,
123,1,5,2,246,0,228.1282,15.9025,195.1504,0,0,0,1,0,0,0,228.1282,204.2283,1.979,-23.9,10,
123,1,5,2,247,1,259.7368,16.5834,137.8908,1,2,3,2,0,1,0,16.5834,NaN,100000,999,0,
123,1,5,2,248,1,199.7466,319.7965,19.9497,3,1,2,2,0,0,1,319.7965,336.6456,2.9373,16.8491,20,
123,1,5,2,249,1,199.978,259.3475,169.7395,3,1,2,3,1,0,0,169.7395,326.106,1.7019,156.3665,0,
123,1,5,2,250,1,49.2368,226.2849,286.886,2,1,3,2,1,0,0,226.2849,218.0272,2.6039,-8.2577,30,
123,1,5,2,251,1,78.4787,138.4745,289.2668,3,2,1,3,1,0,0,289.2668,285.4436,1.1804,-3.8232,30,
123,1,5,2,252,1,285.1528,317.72,19.1175,1,2,3,1,1,0,0,285.1528,294.2477,1.9581,9.095,30,
123,1,5,2,253,1,75.3009,349.3086,225.3544,2,1,3,2,1,0,0,349.3086,15.8917,3.9374,26.5831,10,
123,1,5,2,254,0,135.38,105.1417,197.1675,0,0,0,1,0,0,0,135.38,148.0282,2.111,12.6482,20,
123,1,5,2,255,0,79.8943,108.3037,19.2312,0,0,0,1,0,0,0,79.8943,72.61,3.6526,-7.2843,30,
123,1,5,2,256,1,76.2625,197.1947,17.9359,1,3,2,1,1,0,0,76.2625,77.0229,1.5484,0.76038,40,
123,1,5,2,257,1,285.1975,227.1738,165.8719,1,3,2,2,0,0,1,227.1738,254.7028,2.5964,27.529,10,
123,1,5,2,258,0,139.4511,49.6629,195.6468,0,0,0,2,0,0,0,49.6629,39.1803,1.6666,-10.4827,30,
123,1,5,2,259,1,225.566,315.3581,197.9051,3,2,1,3,1,0,0,197.9051,206.4083,1.7498,8.5032,30,
123,1,5,2,260,1,19.5103,78.3466,135.8569,3,1,2,3,1,0,0,135.8569,126.2452,1.9512,-9.6117,30,
123,1,5,2,261,1,76.506,47.9148,285.5384,3,2,1,3,1,0,0,285.5384,291.7441,1.1458,6.2058,30,
123,1,5,2,262,0,108.7769,168.2008,346.5331,0,0,0,2,0,0,0,168.2008,163.4823,3.2428,-4.7185,30,
123,1,5,2,263,0,16.8902,109.4934,138.9438,0,0,0,3,0,0,0,138.9438,282.7069,2.5143,143.7631,0,
123,1,5,2,264,1,78.1704,347.7574,258.8614,1,3,2,3,0,1,0,258.8614,NaN,100000,999,0,
123,1,5,2,265,0,258.6754,49.5882,15.153,0,0,0,3,0,0,0,15.153,72.503,2.4512,57.35,0,
123,1,5,2,266,0,139.4723,165.3628,108.1772,0,0,0,1,0,0,0,139.4723,140.2803,1.4722,0.80793,40,
123,1,5,2,267,0,287.6335,48.4547,345.2733,0,0,0,1,0,0,0,287.6335,325.0468,2.5623,37.4133,0,
123,1,5,2,268,1,79.5617,109.5881,228.0927,2,3,1,2,1,0,0,109.5881,124.5668,1.5554,14.9786,20,
123,1,5,2,269,1,256.2028,226.4117,78.9937,1,2,3,2,0,1,0,226.4117,NaN,100000,999,0,
123,1,5,2,270,1,195.7787,347.0457,228.4683,2,3,1,1,0,0,1,195.7787,198.865,1.5831,3.0863,30,
123,1,5,2,271,1,196.4051,228.0945,166.1022,2,3,1,1,0,0,1,196.4051,183.7559,1.5972,-12.6492,20,
123,1,5,2,272,0,106.9624,45.3351,198.8926,0,0,0,2,0,0,0,45.3351,35.1978,2.0415,-10.1373,30,
123,1,5,2,273,1,319.0539,287.8236,165.2784,3,2,1,3,1,0,0,165.2784,321.1325,1.0278,155.8541,0,
123,1,5,2,274,1,347.212,197.3353,135.0519,1,2,3,1,1,0,0,347.212,1.5985,1.979,14.3864,20,
123,1,5,2,275,1,197.5864,138.251,169.3563,3,1,2,3,1,0,0,169.3563,171.643,2.2775,2.2867,40,
123,1,5,2,276,1,78.3333,196.916,348.4661,3,2,1,3,1,0,0,348.4661,340.0293,1.3541,-8.4368,30,
123,1,5,2,277,0,345.5161,229.0877,19.9005,0,0,0,1,0,0,0,345.5161,5.1322,2.8678,19.6161,20,
123,1,5,2,278,1,137.058,255.2561,106.5764,1,3,2,3,0,1,0,106.5764,NaN,100000,999,0,
123,1,5,2,279,1,316.2382,79.9271,105.6379,3,2,1,1,0,0,1,316.2382,5.4112,2.4716,49.173,0,
123,1,5,2,280,0,229.4108,349.2476,197.8437,0,0,0,3,0,0,0,197.8437,196.5316,3.5413,-1.3121,40,
123,1,5,2,281,0,229.4693,315.8155,49.9449,0,0,0,1,0,0,0,229.4693,211.9868,1.7429,-17.4826,20,
123,1,5,2,282,1,227.5872,18.508,255.2254,2,3,1,3,0,1,0,255.2254,NaN,100000,999,0,
123,1,5,2,283,0,315.497,78.0433,109.0218,0,0,0,3,0,0,0,109.0218,114.1588,2.7428,5.1371,30,
123,1,5,2,284,1,18.7949,169.6158,289.3606,1,2,3,1,1,0,0,18.7949,13.5981,3.972,-5.1968,30,
123,1,5,2,285,1,199.3241,45.7012,348.2857,1,3,2,1,1,0,0,199.3241,197.1778,1.4791,-2.1463,40,
123,1,5,2,286,0,288.9333,195.5999,77.0599,0,0,0,2,0,0,0,195.5999,34.3481,2.2295,-161.2517,0,
123,1,5,2,287,1,107.9219,47.6928,319.9534,3,2,1,3,1,0,0,319.9534,320.9058,1.3818,0.95238,40,
123,1,5,2,288,0,138.8452,256.7315,319.8373,0,0,0,1,0,0,0,138.8452,160.4581,2.4442,21.613,10,
123,1,5,2,289,0,78.9467,46.7546,196.1009,0,0,0,3,0,0,0,196.1009,170.0833,2.479,-26.0176,10,
123,1,5,2,290,1,346.2992,48.4378,77.1625,1,2,3,1,1,0,0,346.2992,331.3316,3.5415,-14.9677,20,
123,1,5,2,291,0,47.5361,168.0629,318.4329,0,0,0,2,0,0,0,168.0629,351.1225,3.1387,-176.9405,0,
123,1,5,2,292,1,15.2567,229.1158,105.1847,2,1,3,2,1,0,0,229.1158,209.821,2.7359,-19.2948,20,
123,1,5,2,293,0,285.3355,346.8281,19.945,0,0,0,2,0,0,0,346.8281,338.8575,1.6665,-7.9706,30,
123,1,5,2,294,0,257.6577,228.2202,197.0375,0,0,0,2,0,0,0,228.2202,221.7113,1.8471,-6.5089,30,
123,1,5,2,295,0,199.4218,139.4775,15.3904,0,0,0,2,0,0,0,139.4775,341.9089,2.3123,-157.5686,0,
123,1,5,2,296,1,45.5671,195.2449,226.3806,1,2,3,2,0,1,0,195.2449,NaN,100000,999,0,
123,1,5,2,297,0,349.7923,108.436,166.3002,0,0,0,2,0,0,0,108.436,72.2547,1.8403,-36.1812,0,
123,1,5,2,298,1,316.3041,199.2829,227.7306,1,2,3,1,1,0,0,316.3041,12.2834,2.0067,55.9793,0,
123,1,5,2,299,0,195.2795,46.0652,78.8827,0,0,0,2,0,0,0,46.0652,51.0706,1.1527,5.0054,30,
123,1,5,2,300,1,315.0698,346.9085,289.5356,2,3,1,2,1,0,0,346.9085,341.6394,1.8957,-5.2691,30,
123,1,6,2,301,1,79.7841,319.5073,168.5029,1,2,3,3,0,0,1,168.5029,150.8017,2.4929,-17.7012,20,
123,1,6,2,302,1,109.2112,169.8573,285.7143,1,2,3,1,1,0,0,109.2112,1.5206,1.7637,-107.6905,0,
123,1,6,2,303,0,168.2753,226.9711,345.9674,0,0,0,1,0,0,0,168.2753,169.4573,1.3472,1.1821,40,
123,1,6,2,304,0,15.1918,169.2424,75.5724,0,0,0,1,0,0,0,15.1918,174.644,1.2638,159.4523,0,
123,1,6,2,305,1,18.2956,318.6955,346.8718,2,3,1,1,0,0,1,18.2956,356.214,2.2499,-22.0816,10,
123,1,6,2,306,1,289.9226,49.8966,138.096,1,2,3,1,1,0,0,289.9226,32.5014,1.8472,102.5788,0,
123,1,6,2,307,1,345.7543,78.3395,316.6828,1,3,2,1,1,0,0,345.7543,3.9298,1.618,18.1756,20,
123,1,6,2,308,0,287.5451,135.1288,169.8776,0,0,0,2,0,0,0,135.1288,22.6674,2.8122,-112.4614,0,
123,1,6,2,309,0,255.8467,108.1058,137.1231,0,0,0,1,0,0,0,255.8467,226.7185,1.875,-29.1282,10,
123,1,6,2,310,0,288.4203,137.4371,106.7839,0,0,0,3,0,0,0,106.7839,99.495,2.9859,-7.2889,30,
123,1,6,2,311,0,229.9133,197.8603,16.1625,0,0,0,2,0,0,0,197.8603,214.2338,2.2429,16.3735,20,
123,1,6,2,312,0,256.8618,16.533,49.4882,0,0,0,2,0,0,0,16.533,37.2967,1.6548,20.7637,20,
123,1,6,2,313,1,105.2382,348.4136,317.3775,3,1,2,3,1,0,0,317.3775,322.0175,1.2638,4.64,30,
123,1,6,2,314,1,46.5277,198.6016,289.2731,1,3,2,1,1,0,0,46.5277,7.4309,2.7429,-39.0968,0,
123,1,6,2,315,0,76.2584,47.9057,229.0416,0,0,0,1,0,0,0,76.2584,56.0839,1.7915,-20.1745,20,
123,1,6,2,316,1,15.2076,226.9566,199.3315,1,2,3,3,0,0,1,199.3315,222.0375,1.5554,22.706,10,
123,1,6,2,317,0,105.538,18.4729,48.7088,0,0,0,1,0,0,0,105.538,37.377,1.7638,-68.161,0,
123,1,6,2,318,0,78.8217,168.5945,49.4033,0,0,0,2,0,0,0,168.5945,137.9817,2.1874,-30.6128,0,
123,1,6,2,319,0,17.4996,137.615,255.098,0,0,0,1,0,0,0,17.4996,10.445,1.7435,-7.0547,30,
123,1,6,2,320,1,259.6594,195.4038,225.3495,2,3,1,2,1,0,0,195.4038,209.4952,2.111,14.0915,20,
123,1,6,2,321,1,138.7434,316.0323,258.3285,3,2,1,3,1,0,0,258.3285,265.3665,1.4166,7.038,30,
123,1,6,2,322,1,226.0773,136.1014,199.4504,2,1,3,2,1,0,0,136.1014,129.0086,1.8332,-7.0928,30,
123,1,6,2,323,0,106.6549,46.057,18.1284,0,0,0,3,0,0,0,18.1284,30.7086,1.7915,12.5802,20,
123,1,6,2,324,0,75.7454,17.4716,229.2435,0,0,0,3,0,0,0,229.2435,228.942,2.604,-0.3015,40,
123,1,6,2,325,0,227.1365,106.384,169.8902,0,0,0,3,0,0,0,169.8902,159.6668,1.9998,-10.2234,30,
123,1,6,2,326,0,136.7248,289.6397,225.1506,0,0,0,3,0,0,0,225.1506,209.9674,2.1387,-15.1832,20,
123,1,6,2,327,1,226.6167,345.3252,106.8691,1,2,3,2,0,1,0,345.3252,NaN,100000,999,0,
123,1,6,2,328,1,137.1461,196.9953,105.3165,2,1,3,2,1,0,0,196.9953,215.0852,2.0548,18.0899,20,
123,1,6,2,329,0,165.379,347.1849,316.3581,0,0,0,1,0,0,0,165.379,167.5007,1.5415,2.1218,40,
123,1,6,2,330,1,198.6708,47.4609,167.0092,3,1,2,2,0,0,1,47.4609,47.823,1.5485,0.36213,40,
123,1,6,2,331,0,257.8686,48.9896,348.1638,0,0,0,1,0,0,0,257.8686,208.4176,1.7151,-49.451,0,
123,1,6,2,332,0,45.5781,76.0204,105.5813,0,0,0,1,0,0,0,45.5781,70.5858,2.2498,25.0077,10,
123,1,6,2,333,1,135.3108,108.4758,285.0103,1,2,3,3,0,0,1,285.0103,306.02,1.9651,21.0097,10,
123,1,6,2,334,0,227.9536,315.0231,15.1538,0,0,0,3,0,0,0,15.1538,11.939,1.8957,-3.2148,30,
123,1,6,2,335,1,49.2546,107.1262,77.872,1,2,3,1,1,0,0,49.2546,24.8466,2.0068,-24.408,10,
123,1,6,2,336,1,348.9192,315.0932,109.5136,2,3,1,2,1,0,0,315.0932,323.2966,2.0062,8.2033,30,
123,1,6,2,337,1,17.6051,135.8951,258.0446,1,3,2,1,1,0,0,17.6051,359.0557,2.1873,-18.5494,20,
123,1,6,2,338,0,166.9995,199.6776,317.3812,0,0,0,1,0,0,0,166.9995,160.8718,1.2985,-6.1277,30,
123,1,6,2,339,0,135.6205,47.0353,285.3385,0,0,0,3,0,0,0,285.3385,320.2177,1.6388,34.8792,0,
123,1,6,2,340,1,109.7587,15.5682,75.5864,3,1,2,2,0,0,1,15.5682,44.1288,2.1388,28.5606,10,
123,1,6,2,341,1,15.0025,285.5097,106.8519,3,1,2,3,1,0,0,106.8519,105.1821,2.6387,-1.6698,40,
123,1,6,2,342,0,138.1121,78.2913,105.8854,0,0,0,2,0,0,0,78.2913,87.3081,1.8123,9.0167,30,
123,1,6,2,343,1,287.1474,78.8986,166.9833,1,2,3,2,0,1,0,78.8986,NaN,100000,999,0,
123,1,6,2,344,1,138.8128,289.8301,109.6494,3,1,2,3,1,0,0,109.6494,72.4123,2.7844,-37.2371,0,
123,1,6,2,345,0,48.0687,106.7289,228.6132,0,0,0,2,0,0,0,106.7289,112.2473,2.1456,5.5184,30,
123,1,6,2,346,1,16.059,46.6451,78.8117,2,3,1,3,0,1,0,78.8117,NaN,100000,999,0,
123,1,6,2,347,1,319.6437,347.9149,165.0771,1,2,3,1,1,0,0,319.6437,349.2724,2.9721,29.6287,10,
123,1,6,2,348,1,49.2638,197.4076,16.3615,1,2,3,3,0,0,1,16.3615,168.9064,2.0902,152.545,0,
123,1,6,2,349,1,168.5688,105.5118,137.2364,3,1,2,3,1,0,0,137.2364,102.4482,2.3471,-34.7883,0,
123,1,6,2,350,1,256.5323,289.1405,199.0395,3,1,2,3,1,0,0,199.0395,198.3011,1.8269,-0.73834,40,
123,1,6,2,351,0,289.3933,257.0109,317.8066,0,0,0,1,0,0,0,289.3933,292.308,2.1596,2.9147,40,
123,1,6,2,352,0,45.738,169.6035,199.6473,0,0,0,1,0,0,0,45.738,18.092,2.9581,-27.646,10,
123,1,6,2,353,1,75.9207,225.0509,15.4296,2,3,1,2,1,0,0,225.0509,227.0821,2.4095,2.0312,40,
123,1,6,2,354,1,166.8589,226.9144,46.2815,3,2,1,3,1,0,0,46.2815,7.4465,2.0137,-38.835,0,
123,1,6,2,355,0,255.2989,138.0798,107.8197,0,0,0,3,0,0,0,107.8197,74.0707,3.4511,-33.749,0,
123,1,6,2,356,1,288.9209,349.9041,78.4497,1,3,2,1,1,0,0,288.9209,271.3419,1.6666,-17.579,20,
123,1,6,2,357,1,228.5225,288.6814,78.2834,2,1,3,3,0,0,1,78.2834,177.366,2.9445,99.0826,0,
123,1,6,2,358,0,258.4428,139.2845,199.5032,0,0,0,3,0,0,0,199.5032,180.5836,1.7707,-18.9196,20,
123,1,6,2,359,0,75.109,109.102,226.4375,0,0,0,2,0,0,0,109.102,109.3886,1.6318,0.28662,40,
123,1,6,2,360,0,228.5207,257.1121,199.7893,0,0,0,3,0,0,0,199.7893,182.3464,1.9929,-17.4429,20,
123,1,7,1,361,1,348.6401,108.1069,135.629,2,1,3,2,1,0,0,108.1069,116.7745,1.4994,8.6676,30,
123,1,7,1,362,1,165.9707,77.9004,136.2374,1,3,2,2,0,0,1,77.9004,113.0469,2.7358,35.1465,0,
123,1,7,1,363,1,229.1241,195.9179,256.9655,1,2,3,2,0,1,0,195.9179,236.6136,1.8263,40.6957,0,
123,1,7,1,364,0,165.5695,109.6809,78.4418,0,0,0,2,0,0,0,109.6809,106.3254,1.2083,-3.3555,30,
123,1,7,1,365,0,166.3811,318.0762,16.4743,0,0,0,3,0,0,0,16.4743,332.7785,2.0346,-43.6958,0,
123,1,7,1,366,0,315.405,165.8073,195.459,0,0,0,1,0,0,0,315.405,336.7402,2.6735,21.3352,10,
123,1,7,1,367,1,109.6495,47.4527,18.9816,1,3,2,1,1,0,0,109.6495,142.1372,1.7359,32.4877,0,
123,1,7,1,368,1,315.9086,169.1649,17.0315,3,1,2,3,1,0,0,17.0315,24.1561,1.9305,7.1246,30,
123,1,7,1,369,0,107.3031,169.6046,349.4309,0,0,0,2,0,0,0,169.6046,32.0572,2.6873,-137.5474,0,
123,1,7,1,370,1,108.4366,228.0565,165.4117,2,1,3,3,0,0,1,165.4117,172.4801,4.1872,7.0684,30,
123,1,7,1,371,1,316.0868,15.5768,45.4294,3,1,2,1,0,1,0,316.0868,15.3428,1.8818,59.2559,0,
123,1,7,1,372,0,169.7511,317.414,197.1645,0,0,0,3,0,0,0,197.1645,199.231,2.229,2.0665,40,
123,1,7,1,373,0,135.5719,46.7905,318.9267,0,0,0,1,0,0,0,135.5719,147.0622,2.1318,11.4903,30,
123,1,7,1,374,1,346.8346,19.0539,319.4885,2,1,3,1,0,1,0,346.8346,150.8488,3.2844,164.0142,0,
123,1,7,1,375,0,45.1252,77.8716,18.6469,0,0,0,2,0,0,0,77.8716,60.4098,2.1942,-17.4618,20,
123,1,7,1,376,1,317.5322,107.8856,259.3953,1,2,3,2,0,1,0,107.8856,83.5138,2.1868,-24.3718,10,
123,1,7,1,377,1,76.9089,199.9239,16.0256,1,3,2,3,0,1,0,16.0256,359.8083,2.1874,-16.2174,20,
123,1,7,1,378,1,345.0754,165.4797,78.9348,3,2,1,3,1,0,0,78.9348,65.7153,1.8888,-13.2195,20,
123,1,7,1,379,0,109.1753,197.4117,135.2972,0,0,0,1,0,0,0,109.1753,126.2265,1.736,17.0512,20,
123,1,7,1,380,1,196.7345,169.6713,346.8693,3,2,1,3,1,0,0,346.8693,335.5721,1.354,-11.2972,30,
123,1,7,1,381,0,107.2397,46.175,135.3356,0,0,0,2,0,0,0,46.175,61.3165,2.229,15.1415,20,
123,1,7,1,382,0,226.7344,348.1009,317.1787,0,0,0,3,0,0,0,317.1787,323.5686,1.486,6.3899,30,
123,1,7,1,383,1,195.1111,168.29,137.2932,3,2,1,3,1,0,0,137.2932,310.1004,1.104,172.8071,0,
123,1,7,1,384,0,347.3584,46.9958,19.5556,0,0,0,2,0,0,0,46.9958,46.6843,1.5622,-0.31144,40,
123,1,7,1,385,1,319.1758,109.2633,258.2195,2,1,3,2,1,0,0,109.2633,82.4136,1.4722,-26.8497,10,
123,1,7,1,386,1,197.0324,288.9135,137.166,3,1,2,2,0,0,1,288.9135,69.6379,1.847,140.7245,0,
123,1,7,1,387,0,348.7326,75.5152,105.2421,0,0,0,2,0,0,0,75.5152,79.7978,1.4027,4.2826,30,
123,1,7,1,388,0,77.205,226.647,167.8605,0,0,0,1,0,0,0,77.205,44.0556,2.5692,-33.1494,0,
123,1,7,1,389,0,345.8717,259.7531,79.8875,0,0,0,2,0,0,0,259.7531,283.7167,2.7359,23.9636,10,
123,1,7,1,390,1,285.5664,17.3066,228.5932,1,2,3,1,1,0,0,285.5664,276.2106,2.1387,-9.3558,30,
123,1,7,1,391,0,196.333,165.6764,255.3885,0,0,0,3,0,0,0,255.3885,225.0972,1.8266,-30.2913,0,
123,1,7,1,392,1,106.7317,169.8031,346.5066,3,2,1,3,1,0,0,346.5066,3.532,2.2776,17.0255,20,
123,1,7,1,393,1,136.2231,17.9134,225.2637,2,3,1,1,0,0,1,136.2231,140.6448,2.4511,4.4217,30,
123,1,7,1,394,0,48.0304,138.6822,108.5663,0,0,0,2,0,0,0,138.6822,127.4357,1.9582,-11.2466,30,
123,1,7,1,395,1,135.9702,318.1324,228.1037,3,2,1,3,1,0,0,228.1037,224.5972,2.0694,-3.5065,30,
123,1,7,1,396,1,165.2446,15.5411,79.2915,2,3,1,2,1,0,0,15.5411,31.2096,1.4235,15.6685,20,
123,1,7,1,397,1,285.1272,199.8929,135.661,2,3,1,2,1,0,0,199.8929,31.1821,1.5971,-168.7108,0,
123,1,7,1,398,1,108.6478,317.4935,257.7333,1,3,2,1,1,0,0,108.6478,127.8735,1.6602,19.2258,20,
123,1,7,1,399,1,47.793,198.7833,229.8796,1,3,2,1,1,0,0,47.793,43.5429,2.0763,-4.2501,30,
123,1,7,1,400,0,16.5286,198.8272,226.2644,0,0,0,3,0,0,0,226.2644,259.9146,1.5762,33.6501,0,
123,1,7,1,401,1,257.3597,48.9807,169.3782,2,1,3,3,0,0,1,169.3782,206.2807,2.2081,36.9025,0,
123,1,7,1,402,0,226.0922,49.7603,76.8113,0,0,0,1,0,0,0,226.0922,221.0555,1.8679,-5.0367,30,
123,1,7,1,403,0,227.4851,346.4198,105.371,0,0,0,2,0,0,0,346.4198,331.5984,2.708,-14.8214,20,
123,1,7,1,404,1,256.8705,46.0809,17.8801,1,2,3,2,0,1,0,46.0809,36.8744,1.5208,-9.2065,30,
123,1,7,1,405,1,15.124,49.5563,345.74,2,3,1,1,0,0,1,15.124,212.8549,1.8818,-162.2691,0,
123,1,7,1,406,1,259.4542,17.9429,105.8129,1,3,2,1,1,0,0,259.4542,248.94,1.4444,-10.5143,30,
123,1,7,1,407,1,16.7648,199.979,316.8248,1,2,3,1,1,0,0,16.7648,12.7823,3.2706,-3.9826,30,
123,1,7,1,408,0,49.1793,317.9413,226.8173,0,0,0,1,0,0,0,49.1793,22.5773,3.1456,-26.602,10,
123,1,7,1,409,1,135.3203,49.2732,19.8723,3,2,1,3,1,0,0,19.8723,201.9872,2.0971,-177.8851,0,
123,1,7,1,410,1,348.9881,196.8402,165.0757,2,1,3,2,1,0,0,196.8402,216.0288,1.9929,19.1886,20,
123,1,7,1,411,0,169.6561,48.0783,106.2914,0,0,0,2,0,0,0,48.0783,36.7903,2.0277,-11.288,30,
123,1,7,1,412,1,259.3564,318.0681,106.3572,1,3,2,1,1,0,0,259.3564,228.5951,1.236,-30.7613,0,
123,1,7,1,413,1,48.6716,136.6975,346.5138,2,3,1,2,1,0,0,136.6975,52.8643,3.1527,-83.8332,0,
123,1,7,1,414,0,46.251,18.0135,228.1273,0,0,0,3,0,0,0,228.1273,226.6473,1.5138,-1.48,40,
123,1,7,1,415,0,18.6461,228.4192,138.2071,0,0,0,3,0,0,0,138.2071,134.4308,1.9026,-3.7763,30,
123,1,7,1,416,0,137.01,78.9045,259.1961,0,0,0,3,0,0,0,259.1961,275.4059,1.3541,16.2098,20,
123,1,7,1,417,1,228.0223,256.9172,107.7524,2,1,3,2,1,0,0,256.9172,270.4921,2.5624,13.5749,20,
123,1,7,1,418,1,77.5213,136.8426,18.4262,1,2,3,3,0,0,1,18.4262,28.6822,2.8609,10.256,30,
123,1,7,1,419,1,45.0179,257.1253,16.1217,2,3,1,2,1,0,0,257.1253,275.1536,1.6527,18.0284,20,
123,1,7,1,420,1,167.9834,315.0926,139.666,2,3,1,2,1,0,0,315.0926,280.3901,1.6875,-34.7025,0,
123,1,8,1,421,0,19.4819,349.1117,259.4139,0,0,0,3,0,0,0,259.4139,256.6308,4.0339,-2.7831,40,
123,1,8,1,422,1,226.2781,19.858,77.9056,1,2,3,2,0,1,0,19.858,45.845,1.5204,25.987,10,
123,1,8,1,423,1,45.6067,75.203,349.4397,2,1,3,2,1,0,0,75.203,67.8561,1.4443,-7.347,30,
123,1,8,1,424,0,108.7988,198.075,135.7603,0,0,0,1,0,0,0,108.7988,150.9274,1.4583,42.1287,0,
123,1,8,1,425,1,347.5489,78.1367,19,2,3,1,2,1,0,0,78.1367,67.4547,1.8679,-10.682,30,
123,1,8,1,426,1,258.037,49.9834,195.2119,1,3,2,2,0,0,1,49.9834,69.4866,2.1455,19.5032,20,
123,1,8,1,427,1,229.2602,15.4968,257.9889,3,2,1,3,1,0,0,257.9889,269.1094,1.5694,11.1205,30,
123,1,8,1,428,1,345.1878,285.5768,259.0935,1,2,3,1,1,0,0,345.1878,342.0767,2.111,-3.1111,30,
123,1,8,1,429,1,107.8684,347.4155,47.1081,2,1,3,3,0,0,1,47.1081,205.886,2.6601,158.7779,0,
123,1,8,1,430,1,196.8805,76.0165,165.8958,3,2,1,3,1,0,0,165.8958,139.9126,2.5137,-25.9833,10,
123,1,8,1,431,1,259.979,135.0422,228.6642,3,2,1,1,0,0,1,259.979,235.8594,3.2359,-24.1197,10,
123,1,8,1,432,1,289.2735,346.0245,19.3018,2,1,3,2,1,0,0,346.0245,157.4679,1.8888,171.4434,0,
123,1,8,1,433,0,348.6641,77.3639,16.9629,0,0,0,2,0,0,0,77.3639,83.3659,1.7775,6.002,30,
123,1,8,1,434,0,139.7399,49.6835,109.9839,0,0,0,3,0,0,0,109.9839,127.1015,2.0554,17.1175,20,
123,1,8,1,435,0,258.7759,16.4223,166.0312,0,0,0,2,0,0,0,16.4223,36.4964,1.368,20.0741,20,
123,1,8,1,436,1,285.3578,135.942,106.6778,2,3,1,3,0,1,0,106.6778,110.0805,2.5976,3.4027,30,
123,1,8,1,437,1,287.168,75.6769,166.078,2,3,1,2,1,0,0,75.6769,80.3107,1.2153,4.6338,30,
123,1,8,1,438,1,348.0378,45.3974,137.0769,3,2,1,1,0,0,1,348.0378,345.9018,2.4373,-2.136,40,
123,1,8,1,439,1,228.4184,79.442,138.5643,3,1,2,3,1,0,0,138.5643,120.7519,1.4721,-17.8125,20,
123,1,8,1,440,1,106.9983,77.2006,196.5481,3,1,2,3,1,0,0,196.5481,185.353,2.7708,-11.1951,30,
123,1,8,1,441,1,138.2049,259.8788,319.6033,3,2,1,3,1,0,0,319.6033,325.1602,1.7152,5.5568,30,
123,1,8,1,442,0,16.7871,75.6814,169.0289,0,0,0,3,0,0,0,169.0289,144.3094,2.0553,-24.7195,10,
123,1,8,1,443,1,138.017,198.3382,169.3166,1,3,2,1,1,0,0,138.017,148.683,1.6248,10.666,30,
123,1,8,1,444,1,46.4313,349.1655,288.8512,1,2,3,1,1,0,0,46.4313,16.698,2.0207,-29.7333,10,
123,1,8,1,445,1,15.4099,286.8748,255.435,3,2,1,2,0,1,0,286.8748,318.5004,2.0971,31.6256,0,
123,1,8,1,446,0,258.6654,107.634,76.3465,0,0,0,1,0,0,0,258.6654,252.093,1.7707,-6.5725,30,
123,1,8,1,447,1,108.6335,169.8065,228.7511,1,3,2,1,1,0,0,108.6335,225.888,2.2637,117.2545,0,
123,1,8,1,448,1,16.72,286.1982,165.002,1,2,3,2,0,1,0,286.1982,293.7744,1.9928,7.5762,30,
123,1,8,1,449,0,168.6221,287.0458,139.9883,0,0,0,1,0,0,0,168.6221,179.1201,2.0762,10.498,30,
123,1,8,1,450,1,348.249,318.9504,75.3615,3,2,1,3,1,0,0,75.3615,54.1889,1.6527,-21.1726,10,
123,1,8,1,451,1,47.0638,317.0801,197.3169,3,1,2,3,1,0,0,197.3169,205.0991,1.7291,7.7822,30,
123,1,8,1,452,0,255.3488,319.3022,166.0419,0,0,0,3,0,0,0,166.0419,164.6176,2.3609,-1.4243,40,
123,1,8,1,453,1,286.5414,166.6602,19.658,2,1,3,2,1,0,0,166.6602,153.0969,1.979,-13.5633,20,
123,1,8,1,454,0,48.7005,137.024,315.2571,0,0,0,2,0,0,0,137.024,138.3719,1.8054,1.3479,40,
123,1,8,1,455,0,258.172,318.6573,285.7818,0,0,0,1,0,0,0,258.172,314.3986,1.7915,56.2267,0,
123,1,8,1,456,0,165.231,257.1094,286.7793,0,0,0,2,0,0,0,257.1094,239.9705,2.118,-17.1389,20,
123,1,8,1,457,0,227.6564,169.6851,256.6671,0,0,0,1,0,0,0,227.6564,212.2485,1.0208,-15.4078,20,
123,1,8,1,458,1,107.2598,348.8097,288.1292,1,3,2,1,1,0,0,107.2598,132.7441,1.1387,25.4843,10,
123,1,8,1,459,1,15.902,46.4852,199.1465,1,2,3,1,1,0,0,15.902,8.9259,2.4235,-6.9761,30,
123,1,8,1,460,0,168.8212,106.8982,197.2703,0,0,0,1,0,0,0,168.8212,151.6136,1.3054,-17.2076,20,
123,1,8,1,461,0,137.7108,199.1513,166.5872,0,0,0,3,0,0,0,166.5872,152.2243,2.2359,-14.3629,20,
123,1,8,1,462,1,137.9032,285.9225,347.4746,2,3,1,2,1,0,0,285.9225,295.5981,2.4929,9.6756,30,
123,1,8,1,463,1,196.5762,75.7709,106.9421,3,2,1,2,0,1,0,75.7709,70.7344,1.8055,-5.0365,30,
123,1,8,1,464,1,285.3413,136.0661,78.8595,1,3,2,1,1,0,0,285.3413,323.7675,1.5207,38.4262,0,
123,1,8,1,465,1,108.3365,79.3563,165.9066,2,1,3,1,0,1,0,108.3365,118.9338,1.4027,10.5973,30,
123,1,8,1,466,1,168.7508,348.7918,47.9178,1,3,2,2,0,0,1,348.7918,10.2919,2.43,21.5001,10,
123,1,8,1,467,1,136.3524,348.8175,316.5929,3,1,2,3,1,0,0,316.5929,313.4544,1.3819,-3.1384,30,
123,1,8,1,468,1,75.5238,107.2228,287.4528,3,1,2,1,0,1,0,75.5238,122.7559,2.0484,47.2321,0,
123,1,8,1,469,1,108.5544,76.3167,166.4805,3,1,2,3,1,0,0,166.4805,163.031,1.4721,-3.4496,30,
123,1,8,1,470,0,259.2464,105.2999,18.8336,0,0,0,3,0,0,0,18.8336,34.778,2.2081,15.9444,20,
123,1,8,1,471,1,75.1583,345.7907,108.5985,3,1,2,3,1,0,0,108.5985,106.82,2.6248,-1.7785,40,
123,1,8,1,472,0,138.904,195.9652,285.8697,0,0,0,1,0,0,0,138.904,240.1282,2.8123,101.2242,0,
123,1,8,1,473,0,199.5466,285.8034,138.6897,0,0,0,1,0,0,0,199.5466,231.0929,1.7707,31.5462,0,
123,1,8,1,474,0,45.596,168.2843,289.7366,0,0,0,2,0,0,0,168.2843,34.8745,1.486,-133.4097,0,
123,1,8,1,475,0,47.2486,259.3221,289.7698,0,0,0,1,0,0,0,47.2486,205.3604,1.6319,158.1118,0,
123,1,8,1,476,1,259.3878,105.4648,79.6492,3,2,1,3,1,0,0,79.6492,60.6945,1.7012,-18.9547,20,
123,1,8,1,477,0,77.187,227.5914,47.8009,0,0,0,1,0,0,0,77.187,53.2308,1.9999,-23.9562,10,
123,1,8,1,478,0,197.6277,46.1462,135.2819,0,0,0,3,0,0,0,135.2819,117.9495,1.7638,-17.3324,20,
123,1,8,1,479,1,139.1133,197.1161,345.5079,1,3,2,1,1,0,0,139.1133,143.7733,1.5416,4.66,30,
123,1,8,1,480,1,17.8186,46.5734,105.7283,1,2,3,3,0,0,1,105.7283,115.4024,1.9512,9.674,30,
