Subject,Session,Block,Condition,Trial,whetherCued,leftStim,rightStim,midStim,remCueLoc,fogCueLoc,neutralCueLoc,probeCueLoc,probeRem,probeForget,probeNeutral,Target,Estimate,RT,Error,Points
129,1,1,1,1,0,136.1214,256.3453,18.3652,0,0,0,2,0,0,0,256.3453,250.1435,2.8956,-6.2018,30,
129,1,1,1,2,0,289.4795,225.4954,105.2208,0,0,0,1,0,0,0,289.4795,295.3114,2.0138,5.8319,30,
129,1,1,1,3,1,347.5064,287.1586,109.9878,2,1,3,2,1,0,0,287.1586,283.4329,1.2016,-3.7257,30,
129,1,1,1,4,0,348.6529,108.2324,289.1658,0,0,0,1,0,0,0,348.6529,341.9009,1.9164,-6.7521,30,
129,1,1,1,5,1,107.4617,228.4737,289.8637,3,2,1,3,1,0,0,289.8637,294.1085,0.68696,4.2448,30,
129,1,1,1,6,1,138.3022,255.2378,226.7439,2,3,1,1,0,0,1,138.3022,134.5881,1.722,-3.7141,30,
129,1,1,1,7,1,197.5189,257.448,49.3852,3,1,2,3,1,0,0,49.3852,47.6044,1.8334,-1.7808,40,
129,1,1,1,8,1,105.0963,165.4194,19.874,1,2,3,1,1,0,0,105.0963,100.2553,1.104,-4.841,30,
129,1,1,1,9,0,349.6502,286.9951,105.237,0,0,0,1,0,0,0,349.6502,355.5009,1.8887,5.8507,30,
129,1,1,1,10,0,259.389,197.9122,285.3534,0,0,0,1,0,0,0,259.389,266.4538,1.8822,7.0648,30,
129,1,1,1,11,1,317.5194,78.234,226.5387,2,1,3,2,1,0,0,78.234,57.0048,1.3679,-21.2292,10,
129,1,1,1,12,1,226.4331,199.0041,19.4806,2,1,3,2,1,0,0,199.0041,177.7226,1.7498,-21.2815,10,
129,1,1,1,13,1,199.1477,319.2454,226.8627,1,2,3,1,1,0,0,199.1477,212.087,2.9512,12.9393,20,
129,1,1,1,14,1,198.7837,137.0852,229.8589,1,2,3,2,0,1,0,137.0852,307.5684,1.5275,170.4832,0,
129,1,1,1,15,1,317.252,136.0284,79.4983,1,2,3,3,0,0,1,79.4983,46.4753,2.2914,-33.023,0,
129,1,1,1,16,0,166.9501,227.4895,288.474,0,0,0,1,0,0,0,166.9501,168.2115,1.8401,1.2614,40,
129,1,1,1,17,0,255.5852,109.0734,346.6243,0,0,0,3,0,0,0,346.6243,9.9309,1.4164,23.3066,10,
129,1,1,1,18,1,19.1594,45.6717,75.3023,2,3,1,2,1,0,0,45.6717,46.5612,1.1943,0.88948,40,
129,1,1,1,19,1,139.9843,17.7677,197.5773,1,2,3,1,1,0,0,139.9843,131.4328,1.3608,-8.5515,30,
129,1,1,1,20,1,169.6556,105.9539,16.2929,1,2,3,2,0,1,0,105.9539,100.4992,1.5832,-5.4547,30,
129,1,1,1,21,0,198.6008,256.7345,227.585,0,0,0,1,0,0,0,198.6008,212.0668,1.4305,13.466,20,
129,1,1,1,22,0,47.1514,228.4688,289.7261,0,0,0,2,0,0,0,228.4688,219.9951,2.097,-8.4737,30,
129,1,1,1,23,0,288.3452,197.5011,346.09,0,0,0,1,0,0,0,288.3452,289.1893,1.6661,0.84406,40,
129,1,1,1,24,1,229.3193,135.4885,169.5403,3,2,1,1,0,0,1,229.3193,234.312,1.493,4.9927,30,
129,1,1,1,25,1,137.5392,347.928,18.8144,1,2,3,1,1,0,0,137.5392,131.1127,1.1805,-6.4266,30,
129,1,1,1,26,0,17.7694,108.4003,196.8359,0,0,0,2,0,0,0,108.4003,236.2063,2.0345,127.8059,0,
129,1,1,1,27,1,135.7013,16.3007,195.4341,3,2,1,3,1,0,0,195.4341,201.3247,2.2776,5.8906,30,
129,1,1,1,28,1,346.1034,285.0065,135.9459,1,2,3,2,0,1,0,285.0065,284.0486,2.3887,-0.95793,40,
129,1,1,1,29,0,105.3418,17.1816,75.8693,0,0,0,1,0,0,0,105.3418,98.6626,1.2569,-6.6792,30,
129,1,1,1,30,1,166.1401,16.8543,319.4546,2,3,1,2,1,0,0,16.8543,64.4929,1.4235,47.6386,0,
129,1,1,1,31,1,347.6621,78.5825,225.8965,2,3,1,1,0,0,1,347.6621,323.7588,1.8541,-23.9033,10,
129,1,1,1,32,1,169.6783,319.0936,48.6413,1,3,2,1,1,0,0,169.6783,172.0894,0.96504,2.4111,40,
129,1,1,1,33,1,108.812,17.8803,78.7383,3,1,2,3,1,0,0,78.7383,48.8546,1.2498,-29.8837,10,
129,1,1,1,34,1,347.6614,136.397,49.7312,2,3,1,2,1,0,0,136.397,120.5845,1.2151,-15.8124,20,
129,1,1,1,35,0,78.6346,196.8692,47.9079,0,0,0,2,0,0,0,196.8692,142.1482,1.1805,-54.7211,0,
129,1,1,1,36,0,45.7597,16.9855,196.8736,0,0,0,3,0,0,0,196.8736,209.628,2.2776,12.7544,20,
129,1,1,1,37,1,138.2116,316.1063,79.1853,2,1,3,2,1,0,0,316.1063,310.8141,1.861,-5.2923,30,
129,1,1,1,38,0,319.2929,289.5553,168.4982,0,0,0,3,0,0,0,168.4982,191.2126,2.4304,22.7144,10,
129,1,1,1,39,1,287.6468,199.1499,49.2938,3,1,2,2,0,0,1,199.1499,204.5138,1.6874,5.3639,30,
129,1,1,1,40,1,169.2518,139.5582,198.1964,1,3,2,1,1,0,0,169.2518,340.4086,1.6176,171.1568,0,
129,1,1,1,41,1,169.1329,48.3844,286.038,3,2,1,3,1,0,0,286.038,295.8365,1.4231,9.7985,30,
129,1,1,1,42,1,287.2569,316.9132,48.9482,2,1,3,2,1,0,0,316.9132,311.8737,1.5276,-5.0396,30,
129,1,1,1,43,0,228.7938,349.9761,315.9329,0,0,0,3,0,0,0,315.9329,293.097,1.479,-22.8359,10,
129,1,1,1,44,1,285.9688,47.1618,258.7458,2,1,3,2,1,0,0,47.1618,57.393,0.99297,10.2311,30,
129,1,1,1,45,0,19.6749,137.3974,346.159,0,0,0,2,0,0,0,137.3974,135.2058,1.2777,-2.1916,40,
129,1,1,1,46,1,287.6548,259.506,317.7028,2,1,3,2,1,0,0,259.506,241.0456,1.3679,-18.4604,20,
129,1,1,1,47,0,105.9911,165.9754,316.6342,0,0,0,3,0,0,0,316.6342,331.5981,1.4443,14.9639,20,
129,1,1,1,48,1,109.0699,259.4922,77.1462,3,1,2,1,0,1,0,109.0699,112.0137,1.5484,2.9438,40,
129,1,1,1,49,1,315.4649,347.3174,285.0467,1,2,3,1,1,0,0,315.4649,154.27,1.5484,-161.195,0,
129,1,1,1,50,0,77.1828,225.2461,105.2482,0,0,0,1,0,0,0,77.1828,109.9734,1.4096,32.7906,0,
129,1,1,1,51,1,17.3062,228.1966,259.5867,2,3,1,2,1,0,0,228.1966,230.6432,2.0831,2.4466,40,
129,1,1,1,52,1,19.9049,195.6352,286.1612,1,3,2,1,1,0,0,19.9049,29.8509,1.7772,9.946,30,
129,1,1,1,53,0,19.2845,75.217,318.4581,0,0,0,2,0,0,0,75.217,59.118,0.64581,-16.0989,20,
129,1,1,1,54,1,79.095,348.1246,228.6928,3,2,1,3,1,0,0,228.6928,232.0294,1.8678,3.3366,30,
129,1,1,1,55,1,49.4771,227.9126,257.9137,1,3,2,1,1,0,0,49.4771,49.0838,1.118,-0.39327,40,
129,1,1,1,56,1,47.0319,136.931,228.049,2,1,3,3,0,0,1,228.049,235.4015,1.2914,7.3525,30,
129,1,1,1,57,1,77.6151,16.6265,49.1592,2,3,1,2,1,0,0,16.6265,21.0433,1.3542,4.4168,30,
129,1,1,1,58,0,137.6428,345.2572,78.7844,0,0,0,2,0,0,0,345.2572,357.3622,1.611,12.105,20,
129,1,1,1,59,0,168.7425,317.7165,226.6907,0,0,0,2,0,0,0,317.7165,316.6641,1.8121,-1.0524,40,
129,1,1,1,60,1,315.1258,197.0721,138.657,2,1,3,3,0,0,1,138.657,126.1587,1.7984,-12.4984,20,
129,1,2,1,61,0,315.8145,169.192,195.8378,0,0,0,3,0,0,0,195.8378,203.8585,1.2916,8.0207,30,
129,1,2,1,62,0,109.7017,135.0292,228.0515,0,0,0,2,0,0,0,135.0292,111.3359,1.1873,-23.6933,10,
129,1,2,1,63,1,256.4523,47.0128,289.3103,1,3,2,3,0,1,0,289.3103,293.4085,1.1669,4.0982,30,
129,1,2,1,64,1,319.2054,76.7725,167.1503,1,3,2,2,0,0,1,76.7725,90.2947,1.6318,13.5222,20,
129,1,2,1,65,1,289.8173,135.4295,167.5025,3,2,1,3,1,0,0,167.5025,184.1231,1.7568,16.6206,20,
129,1,2,1,66,0,46.5193,197.4165,346.6891,0,0,0,1,0,0,0,46.5193,49.2195,1.7082,2.7003,40,
129,1,2,1,67,0,79.9262,107.7974,169.668,0,0,0,2,0,0,0,107.7974,107.2493,1.1878,-0.5481,40,
129,1,2,1,68,1,135.5422,165.1806,228.0905,2,1,3,2,1,0,0,165.1806,134.5044,1.0764,-30.6761,0,
129,1,2,1,69,0,259.4502,346.651,166.1485,0,0,0,1,0,0,0,259.4502,266.6459,1.4374,7.1957,30,
129,1,2,1,70,0,135.5697,19.8928,79.243,0,0,0,3,0,0,0,79.243,67.5769,1.6318,-11.6661,30,
129,1,2,1,71,0,285.5402,17.2994,137.2544,0,0,0,3,0,0,0,137.2544,141.9818,1.4929,4.7273,30,
129,1,2,1,72,1,138.7045,347.534,165.9996,2,3,1,2,1,0,0,347.534,146.2231,1.111,158.6891,0,
129,1,2,1,73,1,169.3879,345.0718,46.4715,1,2,3,1,1,0,0,169.3879,176.2193,0.62482,6.8315,30,
129,1,2,1,74,1,227.7164,78.5126,19.7822,2,1,3,2,1,0,0,78.5126,79.6634,1.4444,1.1508,40,
129,1,2,1,75,0,78.8751,319.5709,48.9128,0,0,0,2,0,0,0,319.5709,315.2632,2.0623,-4.3078,30,
129,1,2,1,76,0,48.4957,168.9813,137.2079,0,0,0,3,0,0,0,137.2079,119.1704,1.4513,-18.0376,20,
129,1,2,1,77,0,315.7287,287.9252,345.3668,0,0,0,3,0,0,0,345.3668,325.8447,1.2777,-19.5221,20,
129,1,2,1,78,0,286.8252,226.5457,315.6046,0,0,0,1,0,0,0,286.8252,299.195,1.3262,12.3698,20,
129,1,2,1,79,1,256.6999,319.2336,46.2303,1,3,2,1,1,0,0,256.6999,244.342,1.5624,-12.3579,20,
129,1,2,1,80,1,135.68,78.9445,105.462,2,1,3,1,0,1,0,135.68,120.4603,1.3679,-15.2197,20,
129,1,2,1,81,1,75.0988,319.8215,349.8519,2,3,1,2,1,0,0,319.8215,322.8505,1.6942,3.029,30,
129,1,2,1,82,0,19.6916,226.2771,107.6658,0,0,0,2,0,0,0,226.2771,237.0128,1.6179,10.7357,30,
129,1,2,1,83,0,138.9798,226.1669,78.0042,0,0,0,2,0,0,0,226.1669,216.5577,1.2708,-9.6092,30,
129,1,2,1,84,0,346.4868,16.9821,317.1038,0,0,0,3,0,0,0,317.1038,318.391,1.5693,1.2872,40,
129,1,2,1,85,1,317.7541,79.3545,195.2113,1,2,3,2,0,1,0,79.3545,83.3281,1.3401,3.9736,30,
129,1,2,1,86,1,47.5997,169.9459,257.4496,3,2,1,1,0,0,1,47.5997,52.6794,1.729,5.0798,30,
129,1,2,1,87,1,79.0846,195.9474,105.6185,1,2,3,1,1,0,0,79.0846,70.0331,1.5206,-9.0515,30,
129,1,2,1,88,1,76.6599,319.1987,286.8586,3,2,1,1,0,0,1,76.6599,77.5178,1.4652,0.85784,40,
129,1,2,1,89,1,135.784,76.6302,46.5703,1,2,3,1,1,0,0,135.784,99.2675,1.9373,-36.5165,0,
129,1,2,1,90,0,286.0726,228.3995,167.7865,0,0,0,3,0,0,0,167.7865,202.6937,1.3471,34.9072,0,
129,1,2,1,91,1,287.0116,195.9092,139.2813,2,3,1,3,0,1,0,139.2813,334.528,2.0971,-164.7533,0,
129,1,2,1,92,1,225.9992,318.0367,107.7152,3,2,1,1,0,0,1,225.9992,217.796,1.2013,-8.2031,30,
129,1,2,1,93,1,48.791,169.4352,15.344,1,3,2,1,1,0,0,48.791,55.4427,1.4095,6.6518,30,
129,1,2,1,94,0,16.9081,317.8384,169.4393,0,0,0,1,0,0,0,16.9081,44.8705,1.0552,27.9625,10,
129,1,2,1,95,1,139.6308,166.4925,256.6904,2,3,1,3,0,1,0,256.6904,241.2229,1.9929,-15.4675,20,
129,1,2,1,96,1,346.3991,77.235,47.9379,1,2,3,1,1,0,0,346.3991,322.3533,1.3607,-24.0459,10,
129,1,2,1,97,1,349.442,316.1658,289.308,2,3,1,2,1,0,0,316.1658,309.9669,1.3193,-6.199,30,
129,1,2,1,98,0,287.6372,108.625,348.0371,0,0,0,2,0,0,0,108.625,105.6438,1.7638,-2.9812,40,
129,1,2,1,99,0,349.0746,135.7025,259.3993,0,0,0,1,0,0,0,349.0746,337.6138,1.2773,-11.4608,30,
129,1,2,1,100,0,15.4219,229.8604,285.1573,0,0,0,2,0,0,0,229.8604,219.3326,2.2568,-10.5279,30,
129,1,2,1,101,0,318.2673,77.4483,349.8643,0,0,0,2,0,0,0,77.4483,69.6348,1.111,-7.8135,30,
129,1,2,1,102,0,287.6205,225.601,105.889,0,0,0,3,0,0,0,105.889,102.5393,1.7429,-3.3496,30,
129,1,2,1,103,1,77.9122,257.105,345.4603,1,3,2,1,1,0,0,77.9122,93.7643,1.2916,15.8521,20,
129,1,2,1,104,1,15.8762,165.966,258.0821,1,3,2,1,1,0,0,15.8762,40.8948,1.2428,25.0186,10,
129,1,2,1,105,1,288.861,317.3768,18.4045,3,1,2,3,1,0,0,18.4045,39.0739,1.236,20.6694,20,
129,1,2,1,106,0,139.1315,79.956,197.6197,0,0,0,3,0,0,0,197.6197,214.9119,1.3541,17.2922,20,
129,1,2,1,107,1,317.3578,347.715,225.2985,2,3,1,2,1,0,0,347.715,8.8516,1.3748,21.1367,10,
129,1,2,1,108,0,79.1667,256.0186,227.7221,0,0,0,2,0,0,0,256.0186,243.4176,1.6666,-12.601,20,
129,1,2,1,109,1,165.6614,49.3524,348.0148,2,3,1,1,0,0,1,165.6614,169.3318,1.0139,3.6704,30,
129,1,2,1,110,1,76.8968,319.3234,17.0998,1,2,3,1,1,0,0,76.8968,80.1278,1.1045,3.231,30,
129,1,2,1,111,0,349.1405,287.5372,16.8308,0,0,0,3,0,0,0,16.8308,15.374,1.3471,-1.4568,40,
129,1,2,1,112,0,167.8456,109.3752,136.7429,0,0,0,2,0,0,0,109.3752,104.0327,0.99991,-5.3424,30,
129,1,2,1,113,0,17.3376,75.7067,45.3407,0,0,0,1,0,0,0,17.3376,46.2494,1.1944,28.9118,10,
129,1,2,1,114,1,346.2021,48.4245,319.1963,3,2,1,3,1,0,0,319.1963,303.8672,1.4095,-15.3291,20,
129,1,2,1,115,0,316.9479,48.8765,285.8968,0,0,0,3,0,0,0,285.8968,287.6933,1.236,1.7964,40,
129,1,2,1,116,0,169.6136,317.8213,17.1573,0,0,0,3,0,0,0,17.1573,6.8717,1.1319,-10.2856,30,
129,1,2,1,117,1,79.9629,257.2792,17.1302,1,3,2,3,0,1,0,17.1302,15.6147,1.0001,-1.5155,40,
129,1,2,1,118,1,348.4165,318.0428,46.0983,2,1,3,2,1,0,0,318.0428,341.6138,1.5974,23.571,10,
129,1,2,1,119,1,169.7606,319.8793,345.1546,1,2,3,1,1,0,0,169.7606,174.4389,1.0832,4.6783,30,
129,1,2,1,120,1,196.2163,77.8571,319.9086,2,1,3,1,0,1,0,196.2163,197.2047,1.5277,0.98833,40,
129,1,3,2,121,0,315.19,49.7712,258.7119,0,0,0,3,0,0,0,258.7119,277.6876,1.0762,18.9757,20,
129,1,3,2,122,1,256.3059,75.474,107.2548,2,3,1,2,1,0,0,75.474,89.2219,0.95147,13.7478,20,
129,1,3,2,123,1,46.3872,285.0305,346.8736,1,3,2,1,1,0,0,46.3872,60.8471,1.2637,14.4599,20,
129,1,3,2,124,0,105.9184,319.3083,75.1632,0,0,0,2,0,0,0,319.3083,330.664,1.6041,11.3557,30,
129,1,3,2,125,0,106.5588,195.2766,18.769,0,0,0,3,0,0,0,18.769,17.3292,1.1525,-1.4397,40,
129,1,3,2,126,1,139.8817,17.9662,316.522,1,3,2,2,0,0,1,17.9662,356.5512,0.94434,-21.415,10,
129,1,3,2,127,1,108.4447,349.7301,229.3677,1,3,2,1,1,0,0,108.4447,112.2294,1.2013,3.7847,30,
129,1,3,2,128,1,319.9646,15.8124,75.5678,3,1,2,3,1,0,0,75.5678,64.5859,1.1735,-10.982,30,
129,1,3,2,129,1,317.5047,196.66,135.8694,2,3,1,2,1,0,0,196.66,210.2371,1.7638,13.5771,20,
129,1,3,2,130,1,287.6892,169.3546,108.6142,3,2,1,3,1,0,0,108.6142,92.1554,1.229,-16.4589,20,
129,1,3,2,131,1,347.3686,289.756,46.2448,2,1,3,2,1,0,0,289.756,319.8778,1.3055,30.1218,0,
129,1,3,2,132,0,167.2609,19.246,46.9522,0,0,0,2,0,0,0,19.246,3.8037,1.1596,-15.4423,20,
129,1,3,2,133,1,197.6056,138.8715,165.6013,2,3,1,2,1,0,0,138.8715,342.2301,1.2222,-156.6415,0,
129,1,3,2,134,1,167.5071,256.385,287.6698,3,2,1,1,0,0,1,167.5071,173.3733,1.0208,5.8662,30,
129,1,3,2,135,1,75.2679,196.8753,288.875,2,3,1,2,1,0,0,196.8753,190.0408,1.1665,-6.8344,30,
129,1,3,2,136,1,197.5604,348.6066,259.6442,3,1,2,3,1,0,0,259.6442,251.7527,1.2707,-7.8915,30,
129,1,3,2,137,0,168.4379,109.9343,348.8497,0,0,0,3,0,0,0,348.8497,344.2567,1.5139,-4.593,30,
129,1,3,2,138,0,198.6208,258.0684,348.9148,0,0,0,2,0,0,0,258.0684,268.0809,1.6388,10.0125,30,
129,1,3,2,139,1,345.3642,288.7561,229.1559,1,2,3,1,1,0,0,345.3642,346.4077,1.4582,1.0436,40,
129,1,3,2,140,1,229.1626,289.9769,348.2488,3,2,1,1,0,0,1,229.1626,223.216,1.7564,-5.9465,30,
129,1,3,2,141,1,196.0322,256.693,137.8706,1,3,2,1,1,0,0,196.0322,195.1715,0.99295,-0.86066,40,
129,1,3,2,142,1,137.2949,199.3049,318.3042,3,2,1,3,1,0,0,318.3042,313.2974,1.6735,-5.0068,30,
129,1,3,2,143,1,319.5075,166.5917,77.9854,3,2,1,3,1,0,0,77.9854,57.5155,1.1178,-20.47,20,
129,1,3,2,144,1,198.7463,49.2093,255.8344,2,3,1,2,1,0,0,49.2093,53.2316,0.91688,4.0223,30,
129,1,3,2,145,0,47.6562,169.7795,195.3334,0,0,0,3,0,0,0,195.3334,206.5526,1.5138,11.2192,30,
129,1,3,2,146,1,285.7627,255.7778,345.4478,3,1,2,3,1,0,0,345.4478,339.1034,1.9786,-6.3445,30,
129,1,3,2,147,0,346.1715,287.3235,18.0969,0,0,0,1,0,0,0,346.1715,323.8248,1.1596,-22.3467,10,
129,1,3,2,148,0,286.6012,47.4647,76.1083,0,0,0,1,0,0,0,286.6012,291.8274,1.3401,5.2262,30,
129,1,3,2,149,1,169.9519,135.1685,257.1213,3,2,1,3,1,0,0,257.1213,245.4862,1.5207,-11.6351,30,
129,1,3,2,150,1,135.5186,76.8876,286.3143,1,3,2,1,1,0,0,135.5186,116.2611,1.1387,-19.2574,20,
129,1,3,2,151,1,136.9241,15.8132,228.9838,3,2,1,3,1,0,0,228.9838,240.787,1.3054,11.8032,30,
129,1,3,2,152,1,256.3422,16.2905,47.405,2,1,3,1,0,1,0,256.3422,NaN,100000,999,0,
129,1,3,2,153,1,46.019,79.9667,135.4681,3,2,1,3,1,0,0,135.4681,125.1422,1.2707,-10.3259,30,
129,1,3,2,154,0,139.2935,49.6024,78.7542,0,0,0,3,0,0,0,78.7542,63.0989,1.0207,-15.6553,20,
129,1,3,2,155,0,287.1087,317.0566,79.7957,0,0,0,1,0,0,0,287.1087,273.8716,1.5763,-13.2371,20,
129,1,3,2,156,1,108.3266,79.8213,348.3558,3,1,2,2,0,0,1,79.8213,88.3756,0.88903,8.5543,30,
129,1,3,2,157,1,75.3655,287.9028,346.4351,3,1,2,3,1,0,0,346.4351,335.2545,0.99307,-11.1806,30,
129,1,3,2,158,1,198.7184,106.9255,16.2575,3,2,1,3,1,0,0,16.2575,9.2957,1.243,-6.9618,30,
129,1,3,2,159,1,19.4394,316.2826,169.834,1,2,3,3,0,0,1,169.834,164.2379,1.2777,-5.5961,30,
129,1,3,2,160,1,198.7854,49.4316,347.3611,1,2,3,2,0,1,0,49.4316,NaN,100000,999,0,
129,1,3,2,161,0,256.8834,287.5216,198.8175,0,0,0,3,0,0,0,198.8175,210.8121,1.0135,11.9946,30,
129,1,3,2,162,0,15.4179,197.5633,289.1643,0,0,0,2,0,0,0,197.5633,211.5723,2.1665,14.009,20,
129,1,3,2,163,0,225.9814,285.6068,317.7185,0,0,0,3,0,0,0,317.7185,306.3957,0.70832,-11.3227,30,
129,1,3,2,164,1,226.822,15.8574,348.9768,2,3,1,2,1,0,0,15.8574,19.6663,1.4513,3.8089,30,
129,1,3,2,165,0,108.4765,49.8046,227.7316,0,0,0,1,0,0,0,108.4765,112.4741,1.0833,3.9976,30,
129,1,3,2,166,1,139.2915,349.5471,169.8083,2,3,1,2,1,0,0,349.5471,354.7019,1.3402,5.1548,30,
129,1,3,2,167,1,317.665,166.6339,78.011,1,2,3,1,1,0,0,317.665,131.4581,0.88182,173.7931,0,
129,1,3,2,168,0,45.8568,286.6499,19.8324,0,0,0,1,0,0,0,45.8568,98.1077,1.0486,52.2509,0,
129,1,3,2,169,0,106.7704,226.3312,346.4575,0,0,0,1,0,0,0,106.7704,129.7009,0.86108,22.9305,10,
129,1,3,2,170,1,49.4181,287.1224,18.0363,2,3,1,2,1,0,0,287.1224,287.7681,1.2846,0.64573,40,
129,1,3,2,171,0,17.7364,197.7674,108.1529,0,0,0,2,0,0,0,197.7674,202.1746,1.7083,4.4072,30,
129,1,3,2,172,0,345.4081,166.3724,229.3376,0,0,0,2,0,0,0,166.3724,170.7563,1.3332,4.3839,30,
129,1,3,2,173,0,198.8857,346.9197,288.5578,0,0,0,1,0,0,0,198.8857,203.1991,0.79163,4.3133,30,
129,1,3,2,174,0,285.827,225.908,348.4572,0,0,0,1,0,0,0,285.827,232.6111,1.1735,-53.2159,0,
129,1,3,2,175,0,165.0106,319.7555,18.8315,0,0,0,3,0,0,0,18.8315,23.3009,1.2985,4.4694,30,
129,1,3,2,176,0,45.903,107.8665,75.8178,0,0,0,2,0,0,0,107.8665,103.1456,1.2568,-4.721,30,
129,1,3,2,177,0,46.1465,285.9111,225.8318,0,0,0,3,0,0,0,225.8318,221.7789,1.0694,-4.0529,30,
129,1,3,2,178,0,108.3036,169.7062,19.8785,0,0,0,2,0,0,0,169.7062,164.3398,1.5763,-5.3663,30,
129,1,3,2,179,1,259.2268,109.3944,138.7309,3,2,1,2,0,1,0,109.3944,NaN,100000,999,0,
129,1,3,2,180,1,17.2394,78.5482,169.7217,1,2,3,1,1,0,0,17.2394,260.012,1.0832,-117.2274,0,
129,1,4,2,181,1,228.2734,195.1307,18.9289,2,3,1,2,1,0,0,195.1307,193.0071,1.1596,-2.1237,40,
129,1,4,2,182,0,109.9695,258.0224,229.7245,0,0,0,3,0,0,0,229.7245,218.6805,0.9656,-11.044,30,
129,1,4,2,183,1,285.552,166.0832,199.0551,1,2,3,1,1,0,0,285.552,280.1511,1.146,-5.4009,30,
129,1,4,2,184,0,108.221,255.3397,226.0396,0,0,0,3,0,0,0,226.0396,228.4625,1.1388,2.423,40,
129,1,4,2,185,1,319.6343,15.0415,79.1231,2,3,1,2,1,0,0,15.0415,13.5607,1.6388,-1.4807,40,
129,1,4,2,186,1,289.6135,166.6016,349.2877,2,3,1,2,1,0,0,166.6016,159.2225,1.5831,-7.3791,30,
129,1,4,2,187,1,135.0642,315.9331,77.4262,1,2,3,1,1,0,0,135.0642,127.4976,0.51386,-7.5666,30,
129,1,4,2,188,1,137.8393,227.1325,45.3812,1,2,3,1,1,0,0,137.8393,146.0767,0.84703,8.2374,30,
129,1,4,2,189,0,169.7982,15.4454,288.9887,0,0,0,1,0,0,0,169.7982,142.4556,2.2776,-27.3426,10,
129,1,4,2,190,0,137.5494,76.9126,259.5274,0,0,0,2,0,0,0,76.9126,83.0895,1.0558,6.177,30,
129,1,4,2,191,1,345.9222,75.2283,289.4252,1,3,2,1,1,0,0,345.9222,348.982,1.9443,3.0598,30,
129,1,4,2,192,0,48.1135,105.3177,286.8675,0,0,0,2,0,0,0,105.3177,100.4453,1.4582,-4.8724,30,
129,1,4,2,193,1,76.7084,347.7434,17.3027,1,2,3,2,0,1,0,347.7434,NaN,100000,999,0,
129,1,4,2,194,1,257.1951,105.7453,195.1414,1,3,2,2,0,0,1,105.7453,110.2145,1.3054,4.4692,30,
129,1,4,2,195,1,317.404,105.3326,79.4889,1,3,2,1,1,0,0,317.404,284.1843,1.0211,-33.2197,0,
129,1,4,2,196,0,76.7007,169.5946,107.2813,0,0,0,1,0,0,0,76.7007,61.2183,0.85409,-15.4824,20,
129,1,4,2,197,1,347.9954,168.0078,108.2471,3,1,2,2,0,0,1,168.0078,156.4956,1.2638,-11.5122,30,
129,1,4,2,198,0,136.8788,169.3173,286.4599,0,0,0,1,0,0,0,136.8788,156.5983,1.0694,19.7195,20,
129,1,4,2,199,0,196.4215,17.1766,229.5188,0,0,0,3,0,0,0,229.5188,220.8112,1.1387,-8.7076,30,
129,1,4,2,200,1,287.6707,136.834,196.8197,1,3,2,1,1,0,0,287.6707,300.0199,1.0554,12.3492,20,
129,1,4,2,201,1,229.9196,49.8989,16.2508,1,2,3,1,1,0,0,229.9196,209.3584,1.2983,-20.5612,20,
129,1,4,2,202,1,195.0178,169.0762,228.1921,3,2,1,3,1,0,0,228.1921,223.66,0.87537,-4.5321,30,
129,1,4,2,203,0,257.3316,289.7577,49.825,0,0,0,3,0,0,0,49.825,49.8102,1.3679,-0.01484,40,
129,1,4,2,204,1,259.0554,288.5523,139.8512,2,1,3,3,0,0,1,139.8512,198.9152,1.7568,59.064,0,
129,1,4,2,205,1,286.2257,165.3206,76.3157,1,3,2,1,1,0,0,286.2257,272.6611,1.3887,-13.5645,20,
129,1,4,2,206,1,315.0382,228.0546,17.0404,1,2,3,1,1,0,0,315.0382,298.0746,1.2082,-16.9636,20,
129,1,4,2,207,0,108.5521,168.4433,16.6047,0,0,0,2,0,0,0,168.4433,166.4181,1.3263,-2.0252,40,
129,1,4,2,208,1,75.8955,138.1723,319.8148,3,1,2,3,1,0,0,319.8148,320.443,0.80514,0.62821,40,
129,1,4,2,209,1,169.5658,108.4126,319.7337,1,2,3,1,1,0,0,169.5658,180.7522,0.29166,11.1865,30,
129,1,4,2,210,0,315.4142,19.752,75.0819,0,0,0,2,0,0,0,19.752,101.6407,1.3609,81.8888,0,
129,1,4,2,211,1,317.3943,106.5406,48.7222,3,2,1,1,0,0,1,317.3943,312.8214,1.3957,-4.5729,30,
129,1,4,2,212,1,286.3409,257.7512,45.9026,3,2,1,3,1,0,0,45.9026,30.4461,0.97217,-15.4565,20,
129,1,4,2,213,0,77.0324,49.759,139.5599,0,0,0,1,0,0,0,77.0324,53.2004,1.5832,-23.8319,10,
129,1,4,2,214,0,318.0144,166.8875,138.3247,0,0,0,3,0,0,0,138.3247,139.5911,1.3611,1.2664,40,
129,1,4,2,215,0,198.4041,109.616,45.7642,0,0,0,1,0,0,0,198.4041,199.602,0.91676,1.1979,40,
129,1,4,2,216,0,45.5504,196.3961,258.8382,0,0,0,3,0,0,0,258.8382,272.6232,1.0972,13.785,20,
129,1,4,2,217,0,226.2324,48.3037,346.647,0,0,0,2,0,0,0,48.3037,60.7541,2.2289,12.4504,20,
129,1,4,2,218,1,49.0048,137.7749,107.0944,2,1,3,1,0,1,0,49.0048,NaN,100000,999,0,
129,1,4,2,219,1,167.4934,18.693,255.0638,2,3,1,3,0,1,0,255.0638,NaN,100000,999,0,
129,1,4,2,220,0,288.6709,195.521,228.9629,0,0,0,1,0,0,0,288.6709,263.28,0.95822,-25.3909,10,
129,1,4,2,221,1,165.2439,196.5692,108.2082,3,1,2,3,1,0,0,108.2082,101.4834,1.1388,-6.7248,30,
129,1,4,2,222,1,48.3979,197.8389,288.2589,3,2,1,2,0,1,0,197.8389,NaN,100000,999,0,
129,1,4,2,223,1,109.8933,45.5568,136.9804,1,2,3,1,1,0,0,109.8933,97.1491,1.3538,-12.7442,20,
129,1,4,2,224,0,78.9946,289.6512,345.0236,0,0,0,2,0,0,0,289.6512,303.4123,1.3745,13.7611,20,
129,1,4,2,225,0,165.1751,197.0274,76.2483,0,0,0,2,0,0,0,197.0274,227.5032,1.0071,30.4758,0,
129,1,4,2,226,1,138.6715,347.4974,169.7165,1,3,2,1,1,0,0,138.6715,152.7586,1.5905,14.0871,20,
129,1,4,2,227,1,167.6721,77.1758,345.7885,1,2,3,2,0,1,0,77.1758,NaN,100000,999,0,
129,1,4,2,228,1,79.4084,198.6705,227.0322,3,2,1,1,0,0,1,79.4084,139.8179,1.2495,60.4095,0,
129,1,4,2,229,1,256.2999,78.9343,137.5579,1,3,2,1,1,0,0,256.2999,241.2893,1.0483,-15.0107,20,
129,1,4,2,230,0,258.2465,78.8143,167.8784,0,0,0,2,0,0,0,78.8143,67.888,1.1735,-10.9262,30,
129,1,4,2,231,1,315.1631,197.1487,45.1863,3,1,2,1,0,1,0,315.1631,NaN,100000,999,0,
129,1,4,2,232,1,166.0708,105.0193,259.4029,3,2,1,1,0,0,1,166.0708,180,1.4026,13.9292,20,
129,1,4,2,233,1,285.4293,17.6559,49.4428,2,1,3,2,1,0,0,17.6559,39.9062,1.6942,22.2503,10,
129,1,4,2,234,0,137.0614,166.811,48.907,0,0,0,2,0,0,0,166.811,163.1688,1.1944,-3.6423,30,
129,1,4,2,235,0,258.397,19.884,195.6273,0,0,0,1,0,0,0,258.397,215.8208,1.0693,-42.5763,0,
129,1,4,2,236,0,167.6627,229.6285,109.4954,0,0,0,2,0,0,0,229.6285,242.893,1.8817,13.2645,20,
129,1,4,2,237,1,289.3028,79.6955,258.401,3,1,2,3,1,0,0,258.401,244.058,0.79855,-14.343,20,
129,1,4,2,238,0,167.6572,228.169,345.0705,0,0,0,1,0,0,0,167.6572,172.2893,1.0971,4.632,30,
129,1,4,2,239,0,78.7617,259.4745,169.2092,0,0,0,1,0,0,0,78.7617,67.1912,1.0764,-11.5705,30,
129,1,4,2,240,0,138.6643,105.5838,18.7302,0,0,0,2,0,0,0,105.5838,109.1216,1.0417,3.5378,30,
129,1,5,2,241,0,167.0559,316.1824,255.9753,0,0,0,2,0,0,0,316.1824,316.9162,1.0346,0.73377,40,
129,1,5,2,242,1,225.5146,49.9844,196.7948,2,3,1,2,1,0,0,49.9844,50.1478,0.63175,0.16345,40,
129,1,5,2,243,1,77.9323,198.8902,258.6385,3,2,1,2,0,1,0,198.8902,NaN,100000,999,0,
129,1,5,2,244,1,228.7567,317.6118,347.4522,2,1,3,2,1,0,0,317.6118,319.3233,0.90269,1.7116,40,
129,1,5,2,245,1,16.2011,225.3515,286.5002,1,2,3,1,1,0,0,16.2011,36.0801,0.77769,19.879,20,
129,1,5,2,246,1,166.4226,49.1528,229.0918,3,1,2,3,1,0,0,229.0918,219.6125,0.94438,-9.4793,30,
129,1,5,2,247,0,48.2004,108.9378,136.35,0,0,0,2,0,0,0,108.9378,110.4395,1.0069,1.5018,40,
129,1,5,2,248,1,135.4472,258.6564,229.5193,1,2,3,1,1,0,0,135.4472,135.6532,0.71506,0.20601,40,
129,1,5,2,249,0,139.9175,46.2417,348.0318,0,0,0,1,0,0,0,139.9175,138.8243,0.88187,-1.0932,40,
129,1,5,2,250,0,287.9163,196.3027,345.4241,0,0,0,2,0,0,0,196.3027,174.5682,1.1875,-21.7345,10,
129,1,5,2,251,1,199.6498,106.4098,345.8444,2,3,1,2,1,0,0,106.4098,124.0129,0.68051,17.6031,20,
129,1,5,2,252,1,169.1344,316.5048,346.9194,2,1,3,2,1,0,0,316.5048,314.8635,0.93752,-1.6413,40,
129,1,5,2,253,1,195.6162,138.6794,225.7831,3,2,1,3,1,0,0,225.7831,215.6861,0.61803,-10.097,30,
129,1,5,2,254,1,105.6737,316.6189,199.7527,2,3,1,2,1,0,0,316.6189,325.0717,0.93746,8.4528,30,
129,1,5,2,255,1,319.0859,286.8877,49.863,2,1,3,2,1,0,0,286.8877,294.5358,0.86799,7.6481,30,
129,1,5,2,256,0,169.9745,197.4529,47.5173,0,0,0,3,0,0,0,47.5173,36.9393,1.3194,-10.5779,30,
129,1,5,2,257,1,108.6293,256.6972,346.3634,2,3,1,1,0,0,1,108.6293,90.8898,1.0138,-17.7396,20,
129,1,5,2,258,1,315.1454,285.681,18.4728,1,3,2,1,1,0,0,315.1454,313.1616,0.80553,-1.9838,40,
129,1,5,2,259,0,345.3735,195.9123,165.1584,0,0,0,2,0,0,0,195.9123,215.2012,1.0764,19.289,20,
129,1,5,2,260,1,48.6624,345.8147,229.6054,2,1,3,2,1,0,0,345.8147,333.4194,0.96523,-12.3953,20,
129,1,5,2,261,0,75.0066,49.9063,17.851,0,0,0,3,0,0,0,17.851,29.1755,0.86082,11.3246,30,
129,1,5,2,262,1,108.7804,256.4412,78.0309,2,3,1,3,0,1,0,78.0309,NaN,100000,999,0,
129,1,5,2,263,0,136.1479,165.0346,318.8332,0,0,0,1,0,0,0,136.1479,131.4317,0.63885,-4.7162,30,
129,1,5,2,264,1,197.5948,19.1099,348.1851,3,1,2,1,0,1,0,197.5948,NaN,100000,999,0,
129,1,5,2,265,1,107.0495,196.8559,226.1343,3,2,1,1,0,0,1,107.0495,110.3325,1.1593,3.283,30,
129,1,5,2,266,0,168.9651,139.0778,48.7606,0,0,0,1,0,0,0,168.9651,182.4856,1.2359,13.5205,20,
129,1,5,2,267,1,317.7818,139.8454,168.4456,1,3,2,1,1,0,0,317.7818,316.4974,1.6391,-1.2845,40,
129,1,5,2,268,0,345.0331,197.9865,288.2959,0,0,0,2,0,0,0,197.9865,229.4402,1.437,31.4537,0,
129,1,5,2,269,0,168.9406,229.348,288.9377,0,0,0,3,0,0,0,288.9377,286.4055,1.111,-2.5322,40,
129,1,5,2,270,1,165.9414,106.621,288.5802,2,1,3,2,1,0,0,106.621,99.1972,1.1666,-7.4238,30,
129,1,5,2,271,1,168.5983,256.5138,47.2951,3,2,1,3,1,0,0,47.2951,47.692,1.1457,0.39694,40,
129,1,5,2,272,1,17.1214,319.5277,287.0866,3,1,2,2,0,0,1,319.5277,324.9308,1.035,5.4031,30,
129,1,5,2,273,0,285.9294,16.4572,317.3083,0,0,0,2,0,0,0,16.4572,5.6438,1.0069,-10.8135,30,
129,1,5,2,274,1,135.8698,195.5877,105.8702,2,3,1,1,0,0,1,135.8698,137.1408,0.74996,1.271,40,
129,1,5,2,275,1,107.3868,259.4494,195.3254,1,2,3,3,0,0,1,195.3254,201.428,1.0278,6.1027,30,
129,1,5,2,276,1,136.9238,347.8132,168.1692,2,3,1,3,0,1,0,168.1692,NaN,100000,999,0,
129,1,5,2,277,1,227.7422,136.0392,108.9229,1,2,3,1,1,0,0,227.7422,215.8861,0.95114,-11.8561,30,
129,1,5,2,278,1,138.9978,348.9808,289.7704,3,2,1,3,1,0,0,289.7704,288.8377,0.63885,-0.93277,40,
129,1,5,2,279,0,136.8617,167.0285,17.1941,0,0,0,2,0,0,0,167.0285,168.0853,1.1735,1.0568,40,
129,1,5,2,280,0,318.5183,259.5948,138.3004,0,0,0,3,0,0,0,138.3004,156.6661,1.5971,18.3657,20,
129,1,5,2,281,1,225.1476,257.3617,288.3922,3,1,2,3,1,0,0,288.3922,294.5919,0.99991,6.1997,30,
129,1,5,2,282,0,19.5042,105.6908,48.9704,0,0,0,2,0,0,0,105.6908,103.4444,1.1597,-2.2464,40,
129,1,5,2,283,1,45.9366,77.7282,136.2756,1,3,2,1,1,0,0,45.9366,11.881,0.9305,-34.0556,0,
129,1,5,2,284,1,169.4306,45.747,257.1734,1,3,2,1,1,0,0,169.4306,333.3785,1.4928,163.9479,0,
129,1,5,2,285,0,287.5569,16.0754,106.7305,0,0,0,2,0,0,0,16.0754,30.1325,1.2917,14.0571,20,
129,1,5,2,286,1,287.3987,75.9933,316.1951,2,3,1,3,0,1,0,316.1951,NaN,100000,999,0,
129,1,5,2,287,1,259.6331,285.4745,76.8771,2,3,1,1,0,0,1,259.6331,270.776,1.0139,11.1429,30,
129,1,5,2,288,0,197.3872,316.5277,47.5817,0,0,0,3,0,0,0,47.5817,32.799,1.1874,-14.7827,20,
129,1,5,2,289,0,319.7979,108.851,79.3751,0,0,0,3,0,0,0,79.3751,76.3891,1.1461,-2.986,40,
129,1,5,2,290,1,16.3184,229.58,348.0752,3,2,1,3,1,0,0,348.0752,333.4794,1.2499,-14.5958,20,
129,1,5,2,291,1,347.7596,17.0191,198.7506,2,1,3,1,0,1,0,347.7596,NaN,100000,999,0,
129,1,5,2,292,1,229.2868,75.9901,315.778,2,1,3,2,1,0,0,75.9901,72.2548,0.96513,-3.7353,30,
129,1,5,2,293,0,76.7418,17.4316,258.3976,0,0,0,3,0,0,0,258.3976,244.6307,0.97215,-13.7669,20,
129,1,5,2,294,0,139.9652,345.4822,196.5657,0,0,0,3,0,0,0,196.5657,206.931,1.1527,10.3652,30,
129,1,5,2,295,1,258.5304,135.1951,198.0815,2,1,3,1,0,1,0,258.5304,NaN,100000,999,0,
129,1,5,2,296,0,79.9196,45.2887,106.9827,0,0,0,3,0,0,0,106.9827,108.893,0.86104,1.9103,40,
129,1,5,2,297,1,139.4131,317.1872,79.1748,2,1,3,3,0,0,1,79.1748,65.8993,1.4234,-13.2755,20,
129,1,5,2,298,0,169.0204,227.8133,108.7544,0,0,0,1,0,0,0,169.0204,170.1385,0.84704,1.1181,40,
129,1,5,2,299,1,15.6194,315.9312,168.2325,1,2,3,1,1,0,0,15.6194,332.6405,1.4027,-42.9789,0,
129,1,5,2,300,1,108.8763,47.9592,16.8809,1,2,3,3,0,0,1,16.8809,31.7099,0.81975,14.829,20,
129,1,6,2,301,0,46.9234,135.2004,227.9147,0,0,0,1,0,0,0,46.9234,53.9135,0.98613,6.9901,30,
129,1,6,2,302,0,195.7893,347.5433,258.0165,0,0,0,3,0,0,0,258.0165,252.082,1.118,-5.9345,30,
129,1,6,2,303,0,16.8971,197.9642,135.3425,0,0,0,2,0,0,0,197.9642,199.433,0.93743,1.4688,40,
129,1,6,2,304,0,347.1749,287.7893,258.1939,0,0,0,1,0,0,0,347.1749,342.9118,1.3055,-4.2631,30,
129,1,6,2,305,1,16.4771,196.8306,76.7452,2,3,1,2,1,0,0,196.8306,203.5596,0.96518,6.729,30,
129,1,6,2,306,1,317.1352,167.8886,349.4976,3,1,2,2,0,0,1,167.8886,198.6698,0.80552,30.7811,0,
129,1,6,2,307,0,349.4673,318.2654,15.2014,0,0,0,1,0,0,0,349.4673,341.8931,1.2151,-7.5741,30,
129,1,6,2,308,1,348.6462,168.243,137.3733,2,1,3,2,1,0,0,168.243,151.1582,0.68743,-17.0847,20,
129,1,6,2,309,1,136.4477,45.0925,348.5075,2,1,3,2,1,0,0,45.0925,47.424,0.95823,2.3315,40,
129,1,6,2,310,1,315.7111,256.8779,168.9678,2,1,3,2,1,0,0,256.8779,253.3508,1.3957,-3.5271,30,
129,1,6,2,311,1,169.758,196.7334,286.4866,1,3,2,1,1,0,0,169.758,190.8579,0.5346,21.0998,10,
129,1,6,2,312,1,259.5246,346.4085,138.0694,1,2,3,2,0,1,0,346.4085,NaN,100000,999,0,
129,1,6,2,313,0,225.0449,48.5914,257.2471,0,0,0,1,0,0,0,225.0449,227.7689,1.2221,2.724,40,
129,1,6,2,314,1,109.9422,346.2555,196.5774,1,3,2,1,1,0,0,109.9422,113.4899,1.243,3.5478,30,
129,1,6,2,315,0,46.3042,227.4654,109.2792,0,0,0,3,0,0,0,109.2792,49.2789,1.1874,-60.0002,0,
129,1,6,2,316,0,257.3016,227.5784,76.36,0,0,0,3,0,0,0,76.36,68.9078,1.0136,-7.4522,30,
129,1,6,2,317,1,257.7944,16.1293,135.5226,1,2,3,2,0,1,0,16.1293,NaN,100000,999,0,
129,1,6,2,318,1,19.299,47.9853,288.2738,2,1,3,1,0,1,0,19.299,NaN,100000,999,0,
129,1,6,2,319,1,195.14,255.3342,79.6353,3,1,2,3,1,0,0,79.6353,69.982,1.0204,-9.6533,30,
129,1,6,2,320,1,15.1824,255.3184,106.6144,1,3,2,2,0,0,1,255.3184,271.1014,1.243,15.783,20,
129,1,6,2,321,0,107.9897,225.1151,19.4971,0,0,0,1,0,0,0,107.9897,139.4417,1.5762,31.452,0,
129,1,6,2,322,0,197.2525,47.8892,285.3742,0,0,0,2,0,0,0,47.8892,51.3759,0.83325,3.4867,30,
129,1,6,2,323,1,17.2564,316.2498,139.7772,2,3,1,2,1,0,0,316.2498,312.5954,1.5415,-3.6545,30,
129,1,6,2,324,0,17.2228,288.1376,347.6732,0,0,0,3,0,0,0,347.6732,345.2289,1.1249,-2.4443,40,
129,1,6,2,325,1,317.5363,165.5686,257.4522,3,1,2,3,1,0,0,257.4522,271.4513,0.71521,13.9991,20,
129,1,6,2,326,1,47.5541,317.8229,199.9686,2,1,3,2,1,0,0,317.8229,296.822,1.7083,-21.0009,10,
129,1,6,2,327,0,106.6799,75.7242,346.2244,0,0,0,2,0,0,0,75.7242,64.6985,1.2986,-11.0257,30,
129,1,6,2,328,1,169.2888,79.31,346.5665,1,3,2,3,0,1,0,346.5665,NaN,100000,999,0,
129,1,6,2,329,1,319.3634,106.4291,198.2842,3,1,2,3,1,0,0,198.2842,221.5284,1.2152,23.2441,10,
129,1,6,2,330,1,349.5954,197.0535,78.6618,3,1,2,1,0,1,0,349.5954,NaN,100000,999,0,
129,1,6,2,331,1,15.0076,347.81,287.7324,3,1,2,3,1,0,0,287.7324,312.4835,0.86806,24.751,10,
129,1,6,2,332,1,285.9061,227.1312,255.4908,1,3,2,1,1,0,0,285.9061,297.7801,1.0763,11.874,30,
129,1,6,2,333,1,345.6878,197.1204,228.8228,3,1,2,3,1,0,0,228.8228,233.8137,0.88906,4.9909,30,
129,1,6,2,334,1,165.8893,259.9342,75.085,2,1,3,1,0,1,0,165.8893,NaN,100000,999,0,
129,1,6,2,335,1,18.1545,289.4599,318.367,1,2,3,1,1,0,0,18.1545,168.4988,0.64578,150.3443,0,
129,1,6,2,336,1,227.6908,319.5507,166.7535,1,3,2,3,0,1,0,166.7535,NaN,100000,999,0,
129,1,6,2,337,0,256.578,109.9701,229.9195,0,0,0,1,0,0,0,256.578,255.9244,0.9373,-0.65362,40,
129,1,6,2,338,1,258.626,319.1718,285.0945,3,2,1,1,0,0,1,258.626,254.4059,1.0209,-4.2201,30,
129,1,6,2,339,0,289.6574,136.8901,18.0884,0,0,0,1,0,0,0,289.6574,277.214,1.1388,-12.4433,20,
129,1,6,2,340,1,107.9087,195.499,225.833,3,1,2,3,1,0,0,225.833,243.8863,0.95127,18.0533,20,
129,1,6,2,341,0,19.4256,46.0482,167.4018,0,0,0,2,0,0,0,46.0482,35.2413,1.4995,-10.8069,30,
129,1,6,2,342,1,78.6958,106.2681,18.5963,1,2,3,2,0,1,0,106.2681,NaN,100000,999,0,
129,1,6,2,343,0,258.1371,347.3141,105.6472,0,0,0,3,0,0,0,105.6472,77.6407,0.9789,-28.0065,10,
129,1,6,2,344,0,229.993,137.5676,346.9392,0,0,0,1,0,0,0,229.993,217.6787,1.236,-12.3143,20,
129,1,6,2,345,1,199.8122,16.5687,48.9854,2,1,3,2,1,0,0,16.5687,38.7089,1.208,22.1403,10,
129,1,6,2,346,1,49.5963,169.9447,79.663,2,1,3,3,0,0,1,79.663,68.3826,1.0695,-11.2804,30,
129,1,6,2,347,1,195.941,315.5034,346.4328,2,1,3,2,1,0,0,315.5034,305.4995,0.98601,-10.0039,30,
129,1,6,2,348,1,106.7758,228.1557,19.3227,1,3,2,1,1,0,0,106.7758,108.5195,0.84721,1.7437,40,
129,1,6,2,349,1,16.1481,136.7947,46.8158,3,1,2,3,1,0,0,46.8158,23.191,1.2499,-23.6248,10,
129,1,6,2,350,0,346.4404,166.8831,225.7325,0,0,0,1,0,0,0,346.4404,327.8814,1.6596,-18.5591,20,
129,1,6,2,351,1,255.7971,226.3939,18.2247,3,2,1,1,0,0,1,255.7971,79.3604,1.1805,-176.4367,0,
129,1,6,2,352,0,75.5483,347.8292,256.3717,0,0,0,3,0,0,0,256.3717,251.4208,1.0693,-4.9509,30,
129,1,6,2,353,1,288.1388,77.2337,19.0555,1,3,2,1,1,0,0,288.1388,275.0634,0.98601,-13.0754,20,
129,1,6,2,354,0,196.9487,15.7521,166.6685,0,0,0,3,0,0,0,166.6685,155.6097,1.4027,-11.0588,30,
129,1,6,2,355,0,106.9478,257.4507,79.4345,0,0,0,1,0,0,0,106.9478,99.5985,0.92352,-7.3493,30,
129,1,6,2,356,1,319.31,345.6282,258.2279,3,1,2,3,1,0,0,258.2279,257.6488,1.111,-0.57909,40,
129,1,6,2,357,1,138.9567,288.2831,107.7184,2,3,1,2,1,0,0,288.2831,295.1631,1.4651,6.88,30,
129,1,6,2,358,0,315.156,289.1379,16.3213,0,0,0,3,0,0,0,16.3213,19.4951,0.90965,3.1738,30,
129,1,6,2,359,0,258.0154,135.9201,225.4373,0,0,0,1,0,0,0,258.0154,238.0991,1.1041,-19.9163,20,
129,1,6,2,360,1,139.5235,198.8365,47.8133,2,1,3,2,1,0,0,198.8365,325.5231,1.0902,126.6866,0,
129,1,7,1,361,1,137.7436,195.0777,75.4734,2,1,3,2,1,0,0,195.0777,205.0953,1.0901,10.0176,30,
129,1,7,1,362,1,256.7246,198.4634,348.583,1,2,3,1,1,0,0,256.7246,249.0148,0.71524,-7.7098,30,
129,1,7,1,363,1,135.1638,79.2181,258.8515,2,1,3,2,1,0,0,79.2181,88.2535,0.72206,9.0354,30,
129,1,7,1,364,1,318.2542,229.9111,195.9692,1,2,3,2,0,1,0,229.9111,220.6204,1.229,-9.2907,30,
129,1,7,1,365,1,108.4551,288.2361,228.1172,3,1,2,3,1,0,0,228.1172,227.5358,1.0903,-0.58138,40,
129,1,7,1,366,0,346.1287,288.3308,49.3567,0,0,0,1,0,0,0,346.1287,353.978,1.5486,7.8493,30,
129,1,7,1,367,1,228.7525,46.6696,168.1642,3,2,1,3,1,0,0,168.1642,164.3052,1.5068,-3.859,30,
129,1,7,1,368,1,226.3755,139.1398,258.9639,1,2,3,3,0,0,1,258.9639,234.6669,1.0974,-24.297,10,
129,1,7,1,369,1,79.0965,319.6324,17.5706,3,1,2,2,0,0,1,319.6324,329.1471,1.2568,9.5147,30,
129,1,7,1,370,1,319.6235,15.2778,76.9202,2,1,3,1,0,1,0,319.6235,329.037,1.6873,9.4135,30,
129,1,7,1,371,0,319.6585,285.5445,48.2585,0,0,0,1,0,0,0,319.6585,325.9864,1.1037,6.3279,30,
129,1,7,1,372,0,106.2626,258.2717,15.3005,0,0,0,3,0,0,0,15.3005,24.6229,0.86801,9.3225,30,
129,1,7,1,373,0,49.0672,258.9382,345.6216,0,0,0,2,0,0,0,258.9382,265.824,1.2012,6.8858,30,
129,1,7,1,374,1,166.1154,197.5488,18.9387,3,2,1,1,0,0,1,166.1154,156.149,0.75685,-9.9664,30,
129,1,7,1,375,0,135.6449,196.0742,226.4641,0,0,0,1,0,0,0,135.6449,169.871,0.88185,34.2262,0,
129,1,7,1,376,1,258.7972,46.9971,227.8371,3,2,1,1,0,0,1,258.7972,249.1354,0.91658,-9.6618,30,
129,1,7,1,377,1,19.3937,136.9647,106.2132,3,1,2,3,1,0,0,106.2132,109.8964,1.6179,3.6832,30,
129,1,7,1,378,1,198.1299,16.6345,346.5555,1,3,2,2,0,0,1,16.6345,13.9817,0.99992,-2.6528,40,
129,1,7,1,379,0,255.9533,317.2465,78.8433,0,0,0,2,0,0,0,317.2465,308.5723,0.88189,-8.6742,30,
129,1,7,1,380,1,106.7368,288.8994,198.5417,1,3,2,3,0,1,0,198.5417,206.1786,1.4304,7.6369,30,
129,1,7,1,381,1,226.6913,289.8702,169.7739,1,3,2,1,1,0,0,226.6913,220.6294,1.0483,-6.0618,30,
129,1,7,1,382,1,75.0635,45.6611,226.9403,1,3,2,1,1,0,0,75.0635,70.5201,1.2082,-4.5434,30,
129,1,7,1,383,0,195.7207,48.1759,349.0121,0,0,0,2,0,0,0,48.1759,36.5921,0.97914,-11.5838,30,
129,1,7,1,384,1,135.4763,286.2294,199.6733,3,1,2,2,0,0,1,286.2294,288.315,1.0624,2.0856,40,
129,1,7,1,385,0,107.2227,346.6329,286.4365,0,0,0,1,0,0,0,107.2227,102.5279,1.1322,-4.6948,30,
129,1,7,1,386,0,167.3073,257.9357,47.388,0,0,0,3,0,0,0,47.388,39.1545,1.1596,-8.2334,30,
129,1,7,1,387,0,105.1816,45.943,347.8877,0,0,0,1,0,0,0,105.1816,94.9122,1.368,-10.2694,30,
129,1,7,1,388,0,197.7527,139.9306,168.4489,0,0,0,2,0,0,0,139.9306,127.8034,1.5485,-12.1272,20,
129,1,7,1,389,1,106.463,49.1621,137.8526,2,3,1,2,1,0,0,49.1621,68.761,1.3054,19.5989,20,
129,1,7,1,390,0,18.0356,289.7875,76.6533,0,0,0,1,0,0,0,18.0356,356.2829,1.7776,-21.7527,10,
129,1,7,1,391,1,45.3576,315.0784,289.8684,3,1,2,3,1,0,0,289.8684,305.5804,1.7635,15.712,20,
129,1,7,1,392,1,78.5901,105.9445,317.1697,3,1,2,3,1,0,0,317.1697,310.3021,0.82649,-6.8676,30,
129,1,7,1,393,1,319.7139,18.3713,226.9283,2,3,1,2,1,0,0,18.3713,32.9769,0.9167,14.6056,20,
129,1,7,1,394,1,196.9913,225.6865,319.7638,3,2,1,3,1,0,0,319.7638,312.1786,0.69453,-7.5852,30,
129,1,7,1,395,0,75.4069,138.9374,255.872,0,0,0,1,0,0,0,75.4069,61.4065,0.98606,-14.0004,20,
129,1,7,1,396,0,347.3247,229.1204,79.3594,0,0,0,3,0,0,0,79.3594,73.2873,1.1457,-6.0721,30,
129,1,7,1,397,0,199.4692,169.205,48.4164,0,0,0,1,0,0,0,199.4692,193.4442,0.99991,-6.025,30,
129,1,7,1,398,1,106.0224,15.3143,48.1119,3,1,2,3,1,0,0,48.1119,43.5993,1.083,-4.5126,30,
129,1,7,1,399,1,347.7221,289.2307,45.2035,1,3,2,1,1,0,0,347.7221,353.3216,2.472,5.5995,30,
129,1,7,1,400,1,288.0459,259.8347,198.8666,1,3,2,1,1,0,0,288.0459,291.0336,1.2707,2.9877,40,
129,1,7,1,401,0,138.5923,169.9766,75.4185,0,0,0,1,0,0,0,138.5923,317.4442,1.0763,178.8519,0,
129,1,7,1,402,1,138.4918,47.2984,315.7883,3,1,2,3,1,0,0,315.7883,307.8699,0.90271,-7.9184,30,
129,1,7,1,403,1,318.6274,135.6952,168.1628,3,1,2,1,0,1,0,318.6274,311.2785,1.243,-7.349,30,
129,1,7,1,404,1,198.2711,316.0916,345.5957,3,1,2,3,1,0,0,345.5957,352.6685,0.91656,7.0728,30,
129,1,7,1,405,1,19.5455,197.2517,168.7432,1,3,2,3,0,1,0,168.7432,161.564,1.0624,-7.1792,30,
129,1,7,1,406,0,196.9978,48.2766,317.8342,0,0,0,3,0,0,0,317.8342,329.5679,0.93746,11.7336,30,
129,1,7,1,407,1,18.4428,258.0195,106.9348,2,3,1,3,0,1,0,106.9348,100.4595,1.6734,-6.4753,30,
129,1,7,1,408,0,18.089,137.9711,318.3294,0,0,0,3,0,0,0,318.3294,313.6374,1.0765,-4.692,30,
129,1,7,1,409,0,285.4329,319.6342,15.7424,0,0,0,1,0,0,0,285.4329,276.3208,1.0416,-9.1121,30,
129,1,7,1,410,0,167.2618,137.6668,287.6333,0,0,0,2,0,0,0,137.6668,115.2442,1.2152,-22.4226,10,
129,1,7,1,411,1,257.6176,76.6841,136.6619,3,1,2,3,1,0,0,136.6619,110.4154,0.98563,-26.2465,10,
129,1,7,1,412,1,318.6127,255.6712,169.2655,2,3,1,2,1,0,0,255.6712,112.3689,1.1319,-143.3023,0,
129,1,7,1,413,1,195.6399,167.3218,78.713,1,3,2,1,1,0,0,195.6399,236.4487,1.6808,40.8088,0,
129,1,7,1,414,0,255.0215,348.2625,136.8484,0,0,0,2,0,0,0,348.2625,332.2988,1.3471,-15.9637,20,
129,1,7,1,415,0,169.2599,195.5886,108.2863,0,0,0,3,0,0,0,108.2863,109.0429,1.562,0.7566,40,
129,1,7,1,416,0,108.0519,256.2399,137.5898,0,0,0,1,0,0,0,108.0519,88.8187,1.0625,-19.2332,20,
129,1,7,1,417,1,315.776,79.9704,137.2512,1,2,3,1,1,0,0,315.776,303.691,1.1249,-12.085,20,
129,1,7,1,418,1,109.5576,45.6649,285.2108,2,1,3,3,0,0,1,285.2108,291.921,1.0346,6.7102,30,
129,1,7,1,419,0,285.9982,227.6508,348.1368,0,0,0,1,0,0,0,285.9982,297.2696,1.0208,11.2714,30,
129,1,7,1,420,1,285.1161,195.8806,349.3046,2,3,1,2,1,0,0,195.8806,223.6676,1.1944,27.787,10,
129,1,8,1,421,1,139.1592,226.9724,75.4832,2,3,1,2,1,0,0,226.9724,219.6605,0.78467,-7.3118,30,
129,1,8,1,422,1,258.0006,19.9983,285.6459,3,1,2,3,1,0,0,285.6459,302.5455,0.93745,16.8996,20,
129,1,8,1,423,0,347.863,79.9688,136.8148,0,0,0,2,0,0,0,79.9688,76.033,0.8124,-3.9358,30,
129,1,8,1,424,1,138.8927,289.0539,347.4898,3,2,1,3,1,0,0,347.4898,340.6172,0.90271,-6.8726,30,
129,1,8,1,425,0,139.122,45.8653,229.3182,0,0,0,3,0,0,0,229.3182,217.0469,1.0346,-12.2713,20,
129,1,8,1,426,1,138.0311,78.9619,49.1808,2,1,3,2,1,0,0,78.9619,79.5143,0.71521,0.55245,40,
129,1,8,1,427,0,46.1867,195.6983,256.1037,0,0,0,2,0,0,0,195.6983,198.7534,0.83335,3.0551,30,
129,1,8,1,428,1,346.4768,289.5354,227.4644,3,2,1,3,1,0,0,227.4644,232.2565,0.92347,4.792,30,
129,1,8,1,429,1,47.187,79.2999,15.0445,1,3,2,1,1,0,0,47.187,46.759,1.2777,-0.42795,40,
129,1,8,1,430,0,79.2645,348.4328,109.7906,0,0,0,2,0,0,0,348.4328,310.657,0.81936,-37.7757,0,
129,1,8,1,431,1,166.9384,345.2837,198.4479,3,2,1,3,1,0,0,198.4479,185.6069,0.93764,-12.841,20,
129,1,8,1,432,0,46.1005,196.179,169.0506,0,0,0,3,0,0,0,169.0506,185.2854,0.95121,16.2347,20,
129,1,8,1,433,0,285.1488,259.3335,319.4721,0,0,0,2,0,0,0,259.3335,259.2358,0.89617,-0.097749,40,
129,1,8,1,434,0,315.0558,256.1726,168.5349,0,0,0,1,0,0,0,315.0558,305.3673,1.1528,-9.6886,30,
129,1,8,1,435,1,138.3282,106.1507,49.0244,2,3,1,2,1,0,0,106.1507,102.1067,0.81243,-4.0441,30,
129,1,8,1,436,0,167.1549,138.8245,349.9823,0,0,0,3,0,0,0,349.9823,325.6753,0.89581,-24.307,10,
129,1,8,1,437,0,107.9765,77.5306,228.882,0,0,0,2,0,0,0,77.5306,78.2313,0.80587,0.70075,40,
129,1,8,1,438,1,165.7078,228.0405,49.6531,3,2,1,1,0,0,1,165.7078,171.5173,0.77063,5.8094,30,
129,1,8,1,439,1,348.1345,49.685,316.5997,2,1,3,3,0,0,1,316.5997,311.6168,0.72911,-4.9829,30,
129,1,8,1,440,1,75.7592,348.6651,45.1985,2,1,3,2,1,0,0,348.6651,335.3092,0.98578,-13.3559,20,
129,1,8,1,441,1,166.6833,319.4168,46.6683,3,2,1,3,1,0,0,46.6683,9.8561,0.97874,-36.8122,0,
129,1,8,1,442,1,78.6986,197.224,109.252,1,2,3,2,0,1,0,197.224,177.7148,0.88191,-19.5092,20,
129,1,8,1,443,1,227.4811,166.4383,105.9151,1,3,2,1,1,0,0,227.4811,231.9472,0.8472,4.4661,30,
129,1,8,1,444,0,226.7599,195.5008,288.965,0,0,0,1,0,0,0,226.7599,217.9786,1.0273,-8.7813,30,
129,1,8,1,445,1,228.4323,319.7786,106.5395,1,2,3,1,1,0,0,228.4323,243.8818,1.0697,15.4495,20,
129,1,8,1,446,0,79.7326,317.4622,348.7411,0,0,0,1,0,0,0,79.7326,93.8123,1.2985,14.0797,20,
129,1,8,1,447,0,45.9115,197.797,18.1324,0,0,0,3,0,0,0,18.1324,16.5075,1.0138,-1.6249,40,
129,1,8,1,448,1,18.6621,168.1551,287.341,3,2,1,3,1,0,0,287.341,356.2072,0.94438,68.8662,0,
129,1,8,1,449,1,136.0884,285.0426,346.5031,3,1,2,3,1,0,0,346.5031,348.703,0.76383,2.1999,40,
129,1,8,1,450,0,315.1533,349.0435,225.2357,0,0,0,2,0,0,0,349.0435,338.3337,0.99992,-10.7098,30,
129,1,8,1,451,1,138.6936,315.0693,168.3956,2,3,1,3,0,1,0,168.3956,176.0329,1.0555,7.6373,30,
129,1,8,1,452,1,46.0342,105.1868,78.3168,3,2,1,3,1,0,0,78.3168,77.9309,0.79874,-0.38594,40,
129,1,8,1,453,0,165.0947,45.9217,15.1337,0,0,0,2,0,0,0,45.9217,50.1499,0.86112,4.2282,30,
129,1,8,1,454,0,348.5217,318.8731,289.1133,0,0,0,3,0,0,0,289.1133,311.8611,0.68086,22.7478,10,
129,1,8,1,455,1,139.6704,47.9709,317.9655,2,1,3,2,1,0,0,47.9709,53.8234,0.84019,5.8526,30,
129,1,8,1,456,1,286.0016,45.0729,168.8158,2,3,1,2,1,0,0,45.0729,53.1645,0.80549,8.0916,30,
129,1,8,1,457,1,195.2941,256.1198,15.8399,3,1,2,3,1,0,0,15.8399,27.4426,0.78465,11.6026,30,
129,1,8,1,458,1,138.5184,169.1855,258.6365,1,2,3,1,1,0,0,138.5184,130.1925,0.85411,-8.3259,30,
129,1,8,1,459,1,19.902,108.5641,259.1282,3,2,1,2,0,1,0,108.5641,101.9158,0.91669,-6.6484,30,
129,1,8,1,460,1,108.5872,226.0126,318.2188,2,1,3,2,1,0,0,226.0126,217.214,0.68747,-8.7986,30,
129,1,8,1,461,0,19.6597,105.4666,288.6939,0,0,0,3,0,0,0,288.6939,306.762,0.82636,18.0681,20,
129,1,8,1,462,1,109.9663,18.7877,196.3753,3,1,2,2,0,0,1,18.7877,19.578,1.3399,0.7903,40,
129,1,8,1,463,0,139.1878,168.7421,197.9193,0,0,0,3,0,0,0,197.9193,202.7697,1.0138,4.8504,30,
129,1,8,1,464,0,136.7104,259.36,16.3401,0,0,0,3,0,0,0,16.3401,32.4401,1.0624,16.1,20,
129,1,8,1,465,1,136.4382,79.6219,316.4924,3,2,1,2,0,1,0,79.6219,47.5673,0.90275,-32.0546,0,
129,1,8,1,466,1,196.6333,136.0981,167.5911,3,1,2,3,1,0,0,167.5911,161.9589,1.0901,-5.6322,30,
129,1,8,1,467,1,226.3809,318.4812,259.4068,3,2,1,3,1,0,0,259.4068,246.6651,1.3957,-12.7416,20,
129,1,8,1,468,0,18.9916,169.3163,138.9898,0,0,0,2,0,0,0,169.3163,181.7873,0.84717,12.471,20,
129,1,8,1,469,1,15.3526,75.3001,108.3079,3,1,2,3,1,0,0,108.3079,96.4311,0.95826,-11.8768,30,
129,1,8,1,470,0,46.2786,346.8916,169.9687,0,0,0,1,0,0,0,46.2786,49.0992,0.94434,2.8205,40,
129,1,8,1,471,1,345.2622,106.6171,78.9984,3,1,2,3,1,0,0,78.9984,82.8578,1.4235,3.8594,30,
129,1,8,1,472,0,348.2674,166.2214,78.7896,0,0,0,3,0,0,0,78.7896,81.3064,1.069,2.5168,40,
129,1,8,1,473,1,106.559,257.9588,76.8881,1,2,3,2,0,1,0,257.9588,252.1842,1.3054,-5.7746,30,
129,1,8,1,474,1,317.6116,229.0412,257.2379,2,1,3,3,0,0,1,257.2379,247.0453,1.2777,-10.1925,30,
129,1,8,1,475,1,287.5106,197.8513,19.2574,1,3,2,1,1,0,0,287.5106,284.7121,1.2983,-2.7985,40,
129,1,8,1,476,0,227.7234,199.2796,318.2134,0,0,0,1,0,0,0,227.7234,248.3271,1.2013,20.6038,20,
129,1,8,1,477,1,76.0947,286.1864,255.0432,1,3,2,3,0,1,0,255.0432,251.6549,1.1528,-3.3883,30,
129,1,8,1,478,1,317.4562,198.8708,225.7391,2,3,1,3,0,1,0,225.7391,240.522,0.93055,14.7829,20,
129,1,8,1,479,1,46.7157,195.3171,168.0624,1,3,2,2,0,0,1,195.3171,185.808,1.0065,-9.5091,30,
129,1,8,1,480,1,285.5423,79.2688,319.5543,3,1,2,3,1,0,0,319.5543,300.5876,0.99299,-18.9667,20,
