Subject,Session,Block,Condition,Trial,whetherCued,leftStim,rightStim,midStim,remCueLoc,fogCueLoc,neutralCueLoc,probeCueLoc,probeRem,probeForget,probeNeutral,Target,Estimate,RT,Error,Points
119,1,1,1,1,0,136.1214,256.3453,18.3652,0,0,0,2,0,0,0,256.3453,314.703,2.3817,58.3577,0,
119,1,1,1,2,0,289.4795,225.4954,105.2208,0,0,0,1,0,0,0,289.4795,304.6268,2.0898,15.1473,20,
119,1,1,1,3,1,347.5064,287.1586,109.9878,2,1,3,2,1,0,0,287.1586,309.589,1.6873,22.4304,10,
119,1,1,1,4,0,348.6529,108.2324,289.1658,0,0,0,1,0,0,0,348.6529,351.4699,2.4303,2.817,40,
119,1,1,1,5,1,107.4617,228.4737,289.8637,3,2,1,3,1,0,0,289.8637,299.209,1.1031,9.3453,30,
119,1,1,1,6,1,138.3022,255.2378,226.7439,2,3,1,1,0,0,1,138.3022,132.1216,2.625,-6.1806,30,
119,1,1,1,7,1,197.5189,257.448,49.3852,3,1,2,3,1,0,0,49.3852,48.5219,1.7012,-0.86333,40,
119,1,1,1,8,1,105.0963,165.4194,19.874,1,2,3,1,1,0,0,105.0963,143.8707,1.6179,38.7745,0,
119,1,1,1,9,0,349.6502,286.9951,105.237,0,0,0,1,0,0,0,349.6502,181.5552,1.1458,-168.095,0,
119,1,1,1,10,0,259.389,197.9122,285.3534,0,0,0,1,0,0,0,259.389,201.9363,1.972,-57.4527,0,
119,1,1,1,11,1,317.5194,78.234,226.5387,2,1,3,2,1,0,0,78.234,59.9791,1.1388,-18.255,20,
119,1,1,1,12,1,226.4331,199.0041,19.4806,2,1,3,2,1,0,0,199.0041,200.5858,1.2222,1.5817,40,
119,1,1,1,13,1,199.1477,319.2454,226.8627,1,2,3,1,1,0,0,199.1477,185.3782,1.2708,-13.7694,20,
119,1,1,1,14,1,198.7837,137.0852,229.8589,1,2,3,2,0,1,0,137.0852,69.1566,2.9441,-67.9287,0,
119,1,1,1,15,1,317.252,136.0284,79.4983,1,2,3,3,0,0,1,79.4983,73.3592,2.1178,-6.1391,30,
119,1,1,1,16,0,166.9501,227.4895,288.474,0,0,0,1,0,0,0,166.9501,155.3198,2.0619,-11.6303,30,
119,1,1,1,17,0,255.5852,109.0734,346.6243,0,0,0,3,0,0,0,346.6243,147.9358,2.6942,161.3115,0,
119,1,1,1,18,1,19.1594,45.6717,75.3023,2,3,1,2,1,0,0,45.6717,54.2097,2.3397,8.538,30,
119,1,1,1,19,1,139.9843,17.7677,197.5773,1,2,3,1,1,0,0,139.9843,146.3668,1.4794,6.3826,30,
119,1,1,1,20,1,169.6556,105.9539,16.2929,1,2,3,2,0,1,0,105.9539,102.9513,2.0276,-3.0026,30,
119,1,1,1,21,0,198.6008,256.7345,227.585,0,0,0,1,0,0,0,198.6008,207.0873,1.8054,8.4865,30,
119,1,1,1,22,0,47.1514,228.4688,289.7261,0,0,0,2,0,0,0,228.4688,314.2569,1.611,85.7881,0,
119,1,1,1,23,0,288.3452,197.5011,346.09,0,0,0,1,0,0,0,288.3452,237.0268,1.3957,-51.3184,0,
119,1,1,1,24,1,229.3193,135.4885,169.5403,3,2,1,1,0,0,1,229.3193,204.2089,1.4443,-25.1104,10,
119,1,1,1,25,1,137.5392,347.928,18.8144,1,2,3,1,1,0,0,137.5392,160.0847,1.0902,22.5455,10,
119,1,1,1,26,0,17.7694,108.4003,196.8359,0,0,0,2,0,0,0,108.4003,71.8961,1.5971,-36.5042,0,
119,1,1,1,27,1,135.7013,16.3007,195.4341,3,2,1,3,1,0,0,195.4341,198.5863,1.8469,3.1523,30,
119,1,1,1,28,1,346.1034,285.0065,135.9459,1,2,3,2,0,1,0,285.0065,335.2248,2.2984,50.2183,0,
119,1,1,1,29,0,105.3418,17.1816,75.8693,0,0,0,1,0,0,0,105.3418,40.3168,2.6873,-65.0249,0,
119,1,1,1,30,1,166.1401,16.8543,319.4546,2,3,1,2,1,0,0,16.8543,24.7545,1.4305,7.9002,30,
119,1,1,1,31,1,347.6621,78.5825,225.8965,2,3,1,1,0,0,1,347.6621,208.4392,1.4375,-139.2229,0,
119,1,1,1,32,1,169.6783,319.0936,48.6413,1,3,2,1,1,0,0,169.6783,168.2266,1.5415,-1.4517,40,
119,1,1,1,33,1,108.812,17.8803,78.7383,3,1,2,3,1,0,0,78.7383,50.3659,1.1388,-28.3724,10,
119,1,1,1,34,1,347.6614,136.397,49.7312,2,3,1,2,1,0,0,136.397,144.388,1.2083,7.991,30,
119,1,1,1,35,0,78.6346,196.8692,47.9079,0,0,0,2,0,0,0,196.8692,236.4583,1.5206,39.589,0,
119,1,1,1,36,0,45.7597,16.9855,196.8736,0,0,0,3,0,0,0,196.8736,72.4844,1.4305,-124.3892,0,
119,1,1,1,37,1,138.2116,316.1063,79.1853,2,1,3,2,1,0,0,316.1063,329.5022,1.6664,13.3959,20,
119,1,1,1,38,0,319.2929,289.5553,168.4982,0,0,0,3,0,0,0,168.4982,140.419,1.7706,-28.0792,10,
119,1,1,1,39,1,287.6468,199.1499,49.2938,3,1,2,2,0,0,1,199.1499,184.1649,3.694,-14.985,20,
119,1,1,1,40,1,169.2518,139.5582,198.1964,1,3,2,1,1,0,0,169.2518,163.5273,0.86799,-5.7245,30,
119,1,1,1,41,1,169.1329,48.3844,286.038,3,2,1,3,1,0,0,286.038,303.1638,0.78463,17.1258,20,
119,1,1,1,42,1,287.2569,316.9132,48.9482,2,1,3,2,1,0,0,316.9132,336.3423,1.6179,19.429,20,
119,1,1,1,43,0,228.7938,349.9761,315.9329,0,0,0,3,0,0,0,315.9329,301.5336,1.5346,-14.3992,20,
119,1,1,1,44,1,285.9688,47.1618,258.7458,2,1,3,2,1,0,0,47.1618,34.2297,1.236,-12.9321,20,
119,1,1,1,45,0,19.6749,137.3974,346.159,0,0,0,2,0,0,0,137.3974,150.7027,1.4583,13.3053,20,
119,1,1,1,46,1,287.6548,259.506,317.7028,2,1,3,2,1,0,0,259.506,231.5598,1.5901,-27.9463,10,
119,1,1,1,47,0,105.9911,165.9754,316.6342,0,0,0,3,0,0,0,316.6342,301.9393,0.67363,-14.6949,20,
119,1,1,1,48,1,109.0699,259.4922,77.1462,3,1,2,1,0,1,0,109.0699,73.0277,1.9234,-36.0422,0,
119,1,1,1,49,1,315.4649,347.3174,285.0467,1,2,3,1,1,0,0,315.4649,324.4933,1.4374,9.0283,30,
119,1,1,1,50,0,77.1828,225.2461,105.2482,0,0,0,1,0,0,0,77.1828,61.8766,1.4092,-15.3061,20,
119,1,1,1,51,1,17.3062,228.1966,259.5867,2,3,1,2,1,0,0,228.1966,235.6759,1.7568,7.4793,30,
119,1,1,1,52,1,19.9049,195.6352,286.1612,1,3,2,1,1,0,0,19.9049,19.7644,2.1595,-0.14051,40,
119,1,1,1,53,0,19.2845,75.217,318.4581,0,0,0,2,0,0,0,75.217,63.6113,1.1387,-11.6056,30,
119,1,1,1,54,1,79.095,348.1246,228.6928,3,2,1,3,1,0,0,228.6928,221.4479,1.6114,-7.2449,30,
119,1,1,1,55,1,49.4771,227.9126,257.9137,1,3,2,1,1,0,0,49.4771,37.8114,2.1179,-11.6657,30,
119,1,1,1,56,1,47.0319,136.931,228.049,2,1,3,3,0,0,1,228.049,307.78,2.0553,79.731,0,
119,1,1,1,57,1,77.6151,16.6265,49.1592,2,3,1,2,1,0,0,16.6265,35.2444,0.99993,18.6179,20,
119,1,1,1,58,0,137.6428,345.2572,78.7844,0,0,0,2,0,0,0,345.2572,357.1643,2.0484,11.9072,30,
119,1,1,1,59,0,168.7425,317.7165,226.6907,0,0,0,2,0,0,0,317.7165,335.8872,1.1527,18.1707,20,
119,1,1,1,60,1,315.1258,197.0721,138.657,2,1,3,3,0,0,1,138.657,141.2813,1.7706,2.6243,40,
119,1,2,1,61,0,315.8145,169.192,195.8378,0,0,0,3,0,0,0,195.8378,182.7308,1.5766,-13.107,20,
119,1,2,1,62,0,109.7017,135.0292,228.0515,0,0,0,2,0,0,0,135.0292,123.2018,1.1322,-11.8274,30,
119,1,2,1,63,1,256.4523,47.0128,289.3103,1,3,2,3,0,1,0,289.3103,301.717,0.89565,12.4067,20,
119,1,2,1,64,1,319.2054,76.7725,167.1503,1,3,2,2,0,0,1,76.7725,140.8608,1.6251,64.0883,0,
119,1,2,1,65,1,289.8173,135.4295,167.5025,3,2,1,3,1,0,0,167.5025,162.1254,1.3539,-5.3771,30,
119,1,2,1,66,0,46.5193,197.4165,346.6891,0,0,0,1,0,0,0,46.5193,27.2431,2.2706,-19.2761,20,
119,1,2,1,67,0,79.9262,107.7974,169.668,0,0,0,2,0,0,0,107.7974,68.764,2.4164,-39.0334,0,
119,1,2,1,68,1,135.5422,165.1806,228.0905,2,1,3,2,1,0,0,165.1806,155.1946,1.2495,-9.986,30,
119,1,2,1,69,0,259.4502,346.651,166.1485,0,0,0,1,0,0,0,259.4502,230.927,1.7564,-28.5232,10,
119,1,2,1,70,0,135.5697,19.8928,79.243,0,0,0,3,0,0,0,79.243,66.4703,1.611,-12.7727,20,
119,1,2,1,71,0,285.5402,17.2994,137.2544,0,0,0,3,0,0,0,137.2544,117.8888,1.646,-19.3656,20,
119,1,2,1,72,1,138.7045,347.534,165.9996,2,3,1,2,1,0,0,347.534,344.1292,2.3815,-3.4047,30,
119,1,2,1,73,1,169.3879,345.0718,46.4715,1,2,3,1,1,0,0,169.3879,162.6015,0.99299,-6.7864,30,
119,1,2,1,74,1,227.7164,78.5126,19.7822,2,1,3,2,1,0,0,78.5126,73.1264,1.0207,-5.3862,30,
119,1,2,1,75,0,78.8751,319.5709,48.9128,0,0,0,2,0,0,0,319.5709,333.7809,1.3194,14.2099,20,
119,1,2,1,76,0,48.4957,168.9813,137.2079,0,0,0,3,0,0,0,137.2079,130.6885,2.1109,-6.5194,30,
119,1,2,1,77,0,315.7287,287.9252,345.3668,0,0,0,3,0,0,0,345.3668,320.8296,0.97193,-24.5372,10,
119,1,2,1,78,0,286.8252,226.5457,315.6046,0,0,0,1,0,0,0,286.8252,316.8491,2.0345,30.0239,0,
119,1,2,1,79,1,256.6999,319.2336,46.2303,1,3,2,1,1,0,0,256.6999,242.9294,1.2985,-13.7706,20,
119,1,2,1,80,1,135.68,78.9445,105.462,2,1,3,1,0,1,0,135.68,115.1909,1.2843,-20.4892,20,
119,1,2,1,81,1,75.0988,319.8215,349.8519,2,3,1,2,1,0,0,319.8215,129.2812,0.88879,169.4598,0,
119,1,2,1,82,0,19.6916,226.2771,107.6658,0,0,0,2,0,0,0,226.2771,229.3334,2.4369,3.0562,30,
119,1,2,1,83,0,138.9798,226.1669,78.0042,0,0,0,2,0,0,0,226.1669,234.8898,1.7706,8.723,30,
119,1,2,1,84,0,346.4868,16.9821,317.1038,0,0,0,3,0,0,0,317.1038,315.2356,1.0485,-1.8682,40,
119,1,2,1,85,1,317.7541,79.3545,195.2113,1,2,3,2,0,1,0,79.3545,154.9846,2.222,75.6301,0,
119,1,2,1,86,1,47.5997,169.9459,257.4496,3,2,1,1,0,0,1,47.5997,49.6506,2.2567,2.0509,40,
119,1,2,1,87,1,79.0846,195.9474,105.6185,1,2,3,1,1,0,0,79.0846,56.1599,1.493,-22.9246,10,
119,1,2,1,88,1,76.6599,319.1987,286.8586,3,2,1,1,0,0,1,76.6599,60.8408,1.0764,-15.8191,20,
119,1,2,1,89,1,135.784,76.6302,46.5703,1,2,3,1,1,0,0,135.784,130.5525,1.0004,-5.2315,30,
119,1,2,1,90,0,286.0726,228.3995,167.7865,0,0,0,3,0,0,0,167.7865,223.0261,1.4374,55.2396,0,
119,1,2,1,91,1,287.0116,195.9092,139.2813,2,3,1,3,0,1,0,139.2813,138.3261,1.0068,-0.95516,40,
119,1,2,1,92,1,225.9992,318.0367,107.7152,3,2,1,1,0,0,1,225.9992,232.888,1.1735,6.8888,30,
119,1,2,1,93,1,48.791,169.4352,15.344,1,3,2,1,1,0,0,48.791,52.6103,1.2082,3.8193,30,
119,1,2,1,94,0,16.9081,317.8384,169.4393,0,0,0,1,0,0,0,16.9081,39.866,0.83325,22.958,10,
119,1,2,1,95,1,139.6308,166.4925,256.6904,2,3,1,3,0,1,0,256.6904,267.8214,1.1596,11.1309,30,
119,1,2,1,96,1,346.3991,77.235,47.9379,1,2,3,1,1,0,0,346.3991,346.034,1.1947,-0.36512,40,
119,1,2,1,97,1,349.442,316.1658,289.308,2,3,1,2,1,0,0,316.1658,316.1566,1.5276,-0.0092205,40,
119,1,2,1,98,0,287.6372,108.625,348.0371,0,0,0,2,0,0,0,108.625,88.9893,0.87519,-19.6357,20,
119,1,2,1,99,0,349.0746,135.7025,259.3993,0,0,0,1,0,0,0,349.0746,346.6169,1.5623,-2.4577,40,
119,1,2,1,100,0,15.4219,229.8604,285.1573,0,0,0,2,0,0,0,229.8604,243.0609,1.236,13.2004,20,
119,1,2,1,101,0,318.2673,77.4483,349.8643,0,0,0,2,0,0,0,77.4483,59.6604,0.70822,-17.7879,20,
119,1,2,1,102,0,287.6205,225.601,105.889,0,0,0,3,0,0,0,105.889,98.7316,0.90964,-7.1574,30,
119,1,2,1,103,1,77.9122,257.105,345.4603,1,3,2,1,1,0,0,77.9122,61.9262,1.257,-15.986,20,
119,1,2,1,104,1,15.8762,165.966,258.0821,1,3,2,1,1,0,0,15.8762,58.7175,0.99992,42.8413,0,
119,1,2,1,105,1,288.861,317.3768,18.4045,3,1,2,3,1,0,0,18.4045,21.9069,1.229,3.5024,30,
119,1,2,1,106,0,139.1315,79.956,197.6197,0,0,0,3,0,0,0,197.6197,203.4411,1.7636,5.8214,30,
119,1,2,1,107,1,317.3578,347.715,225.2985,2,3,1,2,1,0,0,347.715,353.9572,1.229,6.2423,30,
119,1,2,1,108,0,79.1667,256.0186,227.7221,0,0,0,2,0,0,0,256.0186,235.7791,1.4303,-20.2395,20,
119,1,2,1,109,1,165.6614,49.3524,348.0148,2,3,1,1,0,0,1,165.6614,161.2265,1.2638,-4.4349,30,
119,1,2,1,110,1,76.8968,319.3234,17.0998,1,2,3,1,1,0,0,76.8968,130.2435,1.4096,53.3467,0,
119,1,2,1,111,0,349.1405,287.5372,16.8308,0,0,0,3,0,0,0,16.8308,316.3451,1.1528,-60.4857,0,
119,1,2,1,112,0,167.8456,109.3752,136.7429,0,0,0,2,0,0,0,109.3752,124.4176,0.97214,15.0425,20,
119,1,2,1,113,0,17.3376,75.7067,45.3407,0,0,0,1,0,0,0,17.3376,22.4221,2.7219,5.0845,30,
119,1,2,1,114,1,346.2021,48.4245,319.1963,3,2,1,3,1,0,0,319.1963,308.8598,1.2429,-10.3365,30,
119,1,2,1,115,0,316.9479,48.8765,285.8968,0,0,0,3,0,0,0,285.8968,310.0678,0.88181,24.1709,10,
119,1,2,1,116,0,169.6136,317.8213,17.1573,0,0,0,3,0,0,0,17.1573,349.1765,1.5415,-27.9809,10,
119,1,2,1,117,1,79.9629,257.2792,17.1302,1,3,2,3,0,1,0,17.1302,16.3563,1.1384,-0.77395,40,
119,1,2,1,118,1,348.4165,318.0428,46.0983,2,1,3,2,1,0,0,318.0428,338.3145,1.0969,20.2717,20,
119,1,2,1,119,1,169.7606,319.8793,345.1546,1,2,3,1,1,0,0,169.7606,162.5913,1.0346,-7.1693,30,
119,1,2,1,120,1,196.2163,77.8571,319.9086,2,1,3,1,0,1,0,196.2163,177.1645,0.73563,-19.0519,20,
119,1,3,2,121,0,315.19,49.7712,258.7119,0,0,0,3,0,0,0,258.7119,324.1458,1.8261,65.4339,0,
119,1,3,2,122,1,256.3059,75.474,107.2548,2,3,1,2,1,0,0,75.474,60.0239,0.81922,-15.4502,20,
119,1,3,2,123,1,46.3872,285.0305,346.8736,1,3,2,1,1,0,0,46.3872,52.8517,0.88211,6.4646,30,
119,1,3,2,124,0,105.9184,319.3083,75.1632,0,0,0,2,0,0,0,319.3083,252.9128,1.9164,-66.3955,0,
119,1,3,2,125,0,106.5588,195.2766,18.769,0,0,0,3,0,0,0,18.769,12.2713,0.89538,-6.4976,30,
119,1,3,2,126,1,139.8817,17.9662,316.522,1,3,2,2,0,0,1,17.9662,57.1862,0.97903,39.22,0,
119,1,3,2,127,1,108.4447,349.7301,229.3677,1,3,2,1,1,0,0,108.4447,133.672,0.96516,25.2273,10,
119,1,3,2,128,1,319.9646,15.8124,75.5678,3,1,2,3,1,0,0,75.5678,50.9767,1.3333,-24.5911,10,
119,1,3,2,129,1,317.5047,196.66,135.8694,2,3,1,2,1,0,0,196.66,218.614,1.7013,21.954,10,
119,1,3,2,130,1,287.6892,169.3546,108.6142,3,2,1,3,1,0,0,108.6142,140.6983,2.0623,32.0841,0,
119,1,3,2,131,1,347.3686,289.756,46.2448,2,1,3,2,1,0,0,289.756,319.2134,1.3192,29.4575,10,
119,1,3,2,132,0,167.2609,19.246,46.9522,0,0,0,2,0,0,0,19.246,329.8754,1.5901,-49.3706,0,
119,1,3,2,133,1,197.6056,138.8715,165.6013,2,3,1,2,1,0,0,138.8715,152.0002,0.65269,13.1287,20,
119,1,3,2,134,1,167.5071,256.385,287.6698,3,2,1,1,0,0,1,167.5071,162.4917,1.111,-5.0154,30,
119,1,3,2,135,1,75.2679,196.8753,288.875,2,3,1,2,1,0,0,196.8753,189.945,1.0207,-6.9303,30,
119,1,3,2,136,1,197.5604,348.6066,259.6442,3,1,2,3,1,0,0,259.6442,286.4218,0.73612,26.7775,10,
119,1,3,2,137,0,168.4379,109.9343,348.8497,0,0,0,3,0,0,0,348.8497,346.1847,0.80552,-2.665,40,
119,1,3,2,138,0,198.6208,258.0684,348.9148,0,0,0,2,0,0,0,258.0684,235.6782,1.361,-22.3902,10,
119,1,3,2,139,1,345.3642,288.7561,229.1559,1,2,3,1,1,0,0,345.3642,355.0546,2.1317,9.6904,30,
119,1,3,2,140,1,229.1626,289.9769,348.2488,3,2,1,1,0,0,1,229.1626,200.8301,1.2221,-28.3324,10,
119,1,3,2,141,1,196.0322,256.693,137.8706,1,3,2,1,1,0,0,196.0322,207.9275,0.95132,11.8953,30,
119,1,3,2,142,1,137.2949,199.3049,318.3042,3,2,1,3,1,0,0,318.3042,316.4145,0.61799,-1.8896,40,
119,1,3,2,143,1,319.5075,166.5917,77.9854,3,2,1,3,1,0,0,77.9854,46.8104,1.3263,-31.175,0,
119,1,3,2,144,1,198.7463,49.2093,255.8344,2,3,1,2,1,0,0,49.2093,55.9512,1.3679,6.742,30,
119,1,3,2,145,0,47.6562,169.7795,195.3334,0,0,0,3,0,0,0,195.3334,198.0146,1.9234,2.6813,40,
119,1,3,2,146,1,285.7627,255.7778,345.4478,3,1,2,3,1,0,0,345.4478,322.8346,1.1111,-22.6132,10,
119,1,3,2,147,0,346.1715,287.3235,18.0969,0,0,0,1,0,0,0,346.1715,338.7991,2.3609,-7.3724,30,
119,1,3,2,148,0,286.6012,47.4647,76.1083,0,0,0,1,0,0,0,286.6012,274.2382,2.1456,-12.363,20,
119,1,3,2,149,1,169.9519,135.1685,257.1213,3,2,1,3,1,0,0,257.1213,206.5501,1.5346,-50.5712,0,
119,1,3,2,150,1,135.5186,76.8876,286.3143,1,3,2,1,1,0,0,135.5186,138.3066,0.73599,2.7881,40,
119,1,3,2,151,1,136.9241,15.8132,228.9838,3,2,1,3,1,0,0,228.9838,234.1067,1.729,5.123,30,
119,1,3,2,152,1,256.3422,16.2905,47.405,2,1,3,1,0,1,0,256.3422,NaN,100000,999,0,
119,1,3,2,153,1,46.019,79.9667,135.4681,3,2,1,3,1,0,0,135.4681,131.5155,0.84018,-3.9526,30,
119,1,3,2,154,0,139.2935,49.6024,78.7542,0,0,0,3,0,0,0,78.7542,116.3726,0.85389,37.6184,0,
119,1,3,2,155,0,287.1087,317.0566,79.7957,0,0,0,1,0,0,0,287.1087,141.0159,1.1531,-146.0928,0,
119,1,3,2,156,1,108.3266,79.8213,348.3558,3,1,2,2,0,0,1,79.8213,34.5512,1.2221,-45.2701,0,
119,1,3,2,157,1,75.3655,287.9028,346.4351,3,1,2,3,1,0,0,346.4351,342.3159,0.72913,-4.1192,30,
119,1,3,2,158,1,198.7184,106.9255,16.2575,3,2,1,3,1,0,0,16.2575,357.5659,0.70132,-18.6916,20,
119,1,3,2,159,1,19.4394,316.2826,169.834,1,2,3,3,0,0,1,169.834,356.9069,1.1596,-172.9271,0,
119,1,3,2,160,1,198.7854,49.4316,347.3611,1,2,3,2,0,1,0,49.4316,NaN,100000,999,0,
119,1,3,2,161,0,256.8834,287.5216,198.8175,0,0,0,3,0,0,0,198.8175,190.2845,1.4999,-8.533,30,
119,1,3,2,162,0,15.4179,197.5633,289.1643,0,0,0,2,0,0,0,197.5633,238.5596,1.1874,40.9963,0,
119,1,3,2,163,0,225.9814,285.6068,317.7185,0,0,0,3,0,0,0,317.7185,317.3685,1.7915,-0.34994,40,
119,1,3,2,164,1,226.822,15.8574,348.9768,2,3,1,2,1,0,0,15.8574,31.2898,0.8958,15.4324,20,
119,1,3,2,165,0,108.4765,49.8046,227.7316,0,0,0,1,0,0,0,108.4765,46.2806,2.0066,-62.1959,0,
119,1,3,2,166,1,139.2915,349.5471,169.8083,2,3,1,2,1,0,0,349.5471,8.9075,0.70827,19.3604,20,
119,1,3,2,167,1,317.665,166.6339,78.011,1,2,3,1,1,0,0,317.665,305.7671,0.95847,-11.8979,30,
119,1,3,2,168,0,45.8568,286.6499,19.8324,0,0,0,1,0,0,0,45.8568,34.3085,0.99295,-11.5484,30,
119,1,3,2,169,0,106.7704,226.3312,346.4575,0,0,0,1,0,0,0,106.7704,69.7832,0.9789,-36.9872,0,
119,1,3,2,170,1,49.4181,287.1224,18.0363,2,3,1,2,1,0,0,287.1224,318.0846,1.4651,30.9622,0,
119,1,3,2,171,0,17.7364,197.7674,108.1529,0,0,0,2,0,0,0,197.7674,257.0051,1.1804,59.2377,0,
119,1,3,2,172,0,345.4081,166.3724,229.3376,0,0,0,2,0,0,0,166.3724,219.8446,0.93041,53.4722,0,
119,1,3,2,173,0,198.8857,346.9197,288.5578,0,0,0,1,0,0,0,198.8857,174.3018,1.4444,-24.5839,10,
119,1,3,2,174,0,285.827,225.908,348.4572,0,0,0,1,0,0,0,285.827,254.9396,1.1456,-30.8873,0,
119,1,3,2,175,0,165.0106,319.7555,18.8315,0,0,0,3,0,0,0,18.8315,345.2463,0.65963,-33.5852,0,
119,1,3,2,176,0,45.903,107.8665,75.8178,0,0,0,2,0,0,0,107.8665,77.5336,1.1526,-30.3329,0,
119,1,3,2,177,0,46.1465,285.9111,225.8318,0,0,0,3,0,0,0,225.8318,86.1946,2.5761,-139.6372,0,
119,1,3,2,178,0,108.3036,169.7062,19.8785,0,0,0,2,0,0,0,169.7062,153.6901,1.361,-16.0161,20,
119,1,3,2,179,1,259.2268,109.3944,138.7309,3,2,1,2,0,1,0,109.3944,NaN,100000,999,0,
119,1,3,2,180,1,17.2394,78.5482,169.7217,1,2,3,1,1,0,0,17.2394,6.8877,1.4373,-10.3516,30,
119,1,4,2,181,1,228.2734,195.1307,18.9289,2,3,1,2,1,0,0,195.1307,206.6795,1.069,11.5488,30,
119,1,4,2,182,0,109.9695,258.0224,229.7245,0,0,0,3,0,0,0,229.7245,122.9557,2.4095,-106.7688,0,
119,1,4,2,183,1,285.552,166.0832,199.0551,1,2,3,1,1,0,0,285.552,226.5833,1.8956,-58.9688,0,
119,1,4,2,184,0,108.221,255.3397,226.0396,0,0,0,3,0,0,0,226.0396,113.9683,0.98614,-112.0713,0,
119,1,4,2,185,1,319.6343,15.0415,79.1231,2,3,1,2,1,0,0,15.0415,24.3302,0.95814,9.2887,30,
119,1,4,2,186,1,289.6135,166.6016,349.2877,2,3,1,2,1,0,0,166.6016,162.974,1.7845,-3.6276,30,
119,1,4,2,187,1,135.0642,315.9331,77.4262,1,2,3,1,1,0,0,135.0642,145.2577,1.2567,10.1934,30,
119,1,4,2,188,1,137.8393,227.1325,45.3812,1,2,3,1,1,0,0,137.8393,147.823,1.2222,9.9837,30,
119,1,4,2,189,0,169.7982,15.4454,288.9887,0,0,0,1,0,0,0,169.7982,159.0504,1.4512,-10.7478,30,
119,1,4,2,190,0,137.5494,76.9126,259.5274,0,0,0,2,0,0,0,76.9126,58.3671,2.1248,-18.5455,20,
119,1,4,2,191,1,345.9222,75.2283,289.4252,1,3,2,1,1,0,0,345.9222,335.4649,3.5412,-10.4572,30,
119,1,4,2,192,0,48.1135,105.3177,286.8675,0,0,0,2,0,0,0,105.3177,103.861,1.7222,-1.4567,40,
119,1,4,2,193,1,76.7084,347.7434,17.3027,1,2,3,2,0,1,0,347.7434,NaN,100000,999,0,
119,1,4,2,194,1,257.1951,105.7453,195.1414,1,3,2,2,0,0,1,105.7453,114.6032,1.6043,8.8579,30,
119,1,4,2,195,1,317.404,105.3326,79.4889,1,3,2,1,1,0,0,317.404,330.4453,2.4025,13.0413,20,
119,1,4,2,196,0,76.7007,169.5946,107.2813,0,0,0,1,0,0,0,76.7007,107.1115,1.4859,30.4108,0,
119,1,4,2,197,1,347.9954,168.0078,108.2471,3,1,2,2,0,0,1,168.0078,130.3509,1.2707,-37.6569,0,
119,1,4,2,198,0,136.8788,169.3173,286.4599,0,0,0,1,0,0,0,136.8788,149.6164,1.9027,12.7376,20,
119,1,4,2,199,0,196.4215,17.1766,229.5188,0,0,0,3,0,0,0,229.5188,203.0478,2.8539,-26.471,10,
119,1,4,2,200,1,287.6707,136.834,196.8197,1,3,2,1,1,0,0,287.6707,318.8771,2.1873,31.2064,0,
119,1,4,2,201,1,229.9196,49.8989,16.2508,1,2,3,1,1,0,0,229.9196,220.1245,1.1041,-9.7951,30,
119,1,4,2,202,1,195.0178,169.0762,228.1921,3,2,1,3,1,0,0,228.1921,201.7018,2.1526,-26.4902,10,
119,1,4,2,203,0,257.3316,289.7577,49.825,0,0,0,3,0,0,0,49.825,57.8883,1.486,8.0633,30,
119,1,4,2,204,1,259.0554,288.5523,139.8512,2,1,3,3,0,0,1,139.8512,132.4825,1.2846,-7.3687,30,
119,1,4,2,205,1,286.2257,165.3206,76.3157,1,3,2,1,1,0,0,286.2257,234.8186,1.2153,-51.4071,0,
119,1,4,2,206,1,315.0382,228.0546,17.0404,1,2,3,1,1,0,0,315.0382,321.5312,1.5137,6.4931,30,
119,1,4,2,207,0,108.5521,168.4433,16.6047,0,0,0,2,0,0,0,168.4433,163.3666,1.4375,-5.0767,30,
119,1,4,2,208,1,75.8955,138.1723,319.8148,3,1,2,3,1,0,0,319.8148,337.0049,0.9303,17.1901,20,
119,1,4,2,209,1,169.5658,108.4126,319.7337,1,2,3,1,1,0,0,169.5658,167.6533,0.95131,-1.9125,40,
119,1,4,2,210,0,315.4142,19.752,75.0819,0,0,0,2,0,0,0,19.752,17.8827,1.458,-1.8693,40,
119,1,4,2,211,1,317.3943,106.5406,48.7222,3,2,1,1,0,0,1,317.3943,318.0168,2.5344,0.62255,40,
119,1,4,2,212,1,286.3409,257.7512,45.9026,3,2,1,3,1,0,0,45.9026,48.937,2.0276,3.0344,30,
119,1,4,2,213,0,77.0324,49.759,139.5599,0,0,0,1,0,0,0,77.0324,52.8326,2.1456,-24.1998,10,
119,1,4,2,214,0,318.0144,166.8875,138.3247,0,0,0,3,0,0,0,138.3247,139.1215,2.6248,0.79684,40,
119,1,4,2,215,0,198.4041,109.616,45.7642,0,0,0,1,0,0,0,198.4041,150.7589,3.3261,-47.6452,0,
119,1,4,2,216,0,45.5504,196.3961,258.8382,0,0,0,3,0,0,0,258.8382,217.9741,4.7981,-40.864,0,
119,1,4,2,217,0,226.2324,48.3037,346.647,0,0,0,2,0,0,0,48.3037,53.7005,1.7013,5.3968,30,
119,1,4,2,218,1,49.0048,137.7749,107.0944,2,1,3,1,0,1,0,49.0048,NaN,100000,999,0,
119,1,4,2,219,1,167.4934,18.693,255.0638,2,3,1,3,0,1,0,255.0638,NaN,100000,999,0,
119,1,4,2,220,0,288.6709,195.521,228.9629,0,0,0,1,0,0,0,288.6709,219.556,1.4721,-69.1149,0,
119,1,4,2,221,1,165.2439,196.5692,108.2082,3,1,2,3,1,0,0,108.2082,113.1988,1.4443,4.9907,30,
119,1,4,2,222,1,48.3979,197.8389,288.2589,3,2,1,2,0,1,0,197.8389,NaN,100000,999,0,
119,1,4,2,223,1,109.8933,45.5568,136.9804,1,2,3,1,1,0,0,109.8933,115.1351,1.8192,5.2418,30,
119,1,4,2,224,0,78.9946,289.6512,345.0236,0,0,0,2,0,0,0,289.6512,325.0648,2.5554,35.4136,0,
119,1,4,2,225,0,165.1751,197.0274,76.2483,0,0,0,2,0,0,0,197.0274,173.1138,1.2568,-23.9135,10,
119,1,4,2,226,1,138.6715,347.4974,169.7165,1,3,2,1,1,0,0,138.6715,143.3897,1.4719,4.7182,30,
119,1,4,2,227,1,167.6721,77.1758,345.7885,1,2,3,2,0,1,0,77.1758,NaN,100000,999,0,
119,1,4,2,228,1,79.4084,198.6705,227.0322,3,2,1,1,0,0,1,79.4084,57.9341,1.4373,-21.4743,10,
119,1,4,2,229,1,256.2999,78.9343,137.5579,1,3,2,1,1,0,0,256.2999,230.4758,1.4374,-25.8241,10,
119,1,4,2,230,0,258.2465,78.8143,167.8784,0,0,0,2,0,0,0,78.8143,66.8981,1.3888,-11.9162,30,
119,1,4,2,231,1,315.1631,197.1487,45.1863,3,1,2,1,0,1,0,315.1631,NaN,100000,999,0,
119,1,4,2,232,1,166.0708,105.0193,259.4029,3,2,1,1,0,0,1,166.0708,180.7473,1.2773,14.6765,20,
119,1,4,2,233,1,285.4293,17.6559,49.4428,2,1,3,2,1,0,0,17.6559,8.2459,0.93051,-9.41,30,
119,1,4,2,234,0,137.0614,166.811,48.907,0,0,0,2,0,0,0,166.811,21.4324,1.1109,-145.3786,0,
119,1,4,2,235,0,258.397,19.884,195.6273,0,0,0,1,0,0,0,258.397,235.6983,1.1804,-22.6987,10,
119,1,4,2,236,0,167.6627,229.6285,109.4954,0,0,0,2,0,0,0,229.6285,238.3958,1.3957,8.7673,30,
119,1,4,2,237,1,289.3028,79.6955,258.401,3,1,2,3,1,0,0,258.401,282.316,1.1318,23.915,10,
119,1,4,2,238,0,167.6572,228.169,345.0705,0,0,0,1,0,0,0,167.6572,177.8701,0.73604,10.2129,30,
119,1,4,2,239,0,78.7617,259.4745,169.2092,0,0,0,1,0,0,0,78.7617,71.9415,1.3124,-6.8202,30,
119,1,4,2,240,0,138.6643,105.5838,18.7302,0,0,0,2,0,0,0,105.5838,73.6695,1.3679,-31.9143,0,
119,1,5,2,241,0,167.0559,316.1824,255.9753,0,0,0,2,0,0,0,316.1824,335.2566,1.611,19.0742,20,
119,1,5,2,242,1,225.5146,49.9844,196.7948,2,3,1,2,1,0,0,49.9844,49.8858,0.75011,-0.098568,40,
119,1,5,2,243,1,77.9323,198.8902,258.6385,3,2,1,2,0,1,0,198.8902,NaN,100000,999,0,
119,1,5,2,244,1,228.7567,317.6118,347.4522,2,1,3,2,1,0,0,317.6118,324.6897,1.7429,7.078,30,
119,1,5,2,245,1,16.2011,225.3515,286.5002,1,2,3,1,1,0,0,16.2011,16.7863,1.5554,0.58516,40,
119,1,5,2,246,1,166.4226,49.1528,229.0918,3,1,2,3,1,0,0,229.0918,223.8911,1.6179,-5.2007,30,
119,1,5,2,247,0,48.2004,108.9378,136.35,0,0,0,2,0,0,0,108.9378,87.6834,1.2638,-21.2544,10,
119,1,5,2,248,1,135.4472,258.6564,229.5193,1,2,3,1,1,0,0,135.4472,135.9475,1.2151,0.50028,40,
119,1,5,2,249,0,139.9175,46.2417,348.0318,0,0,0,1,0,0,0,139.9175,150.1052,0.78449,10.1877,30,
119,1,5,2,250,0,287.9163,196.3027,345.4241,0,0,0,2,0,0,0,196.3027,185.9129,1.0207,-10.3899,30,
119,1,5,2,251,1,199.6498,106.4098,345.8444,2,3,1,2,1,0,0,106.4098,106.8087,0.79159,0.39892,40,
119,1,5,2,252,1,169.1344,316.5048,346.9194,2,1,3,2,1,0,0,316.5048,344.3142,1.5276,27.8094,10,
119,1,5,2,253,1,195.6162,138.6794,225.7831,3,2,1,3,1,0,0,225.7831,226.9274,1.0765,1.1443,40,
119,1,5,2,254,1,105.6737,316.6189,199.7527,2,3,1,2,1,0,0,316.6189,350.6529,0.82636,34.0339,0,
119,1,5,2,255,1,319.0859,286.8877,49.863,2,1,3,2,1,0,0,286.8877,308.0639,1.1803,21.1761,10,
119,1,5,2,256,0,169.9745,197.4529,47.5173,0,0,0,3,0,0,0,47.5173,153.1025,1.3193,105.5853,0,
119,1,5,2,257,1,108.6293,256.6972,346.3634,2,3,1,1,0,0,1,108.6293,84.716,1.4859,-23.9133,10,
119,1,5,2,258,1,315.1454,285.681,18.4728,1,3,2,1,1,0,0,315.1454,317.8243,1.2846,2.6789,40,
119,1,5,2,259,0,345.3735,195.9123,165.1584,0,0,0,2,0,0,0,195.9123,220.1458,1.1596,24.2336,10,
119,1,5,2,260,1,48.6624,345.8147,229.6054,2,1,3,2,1,0,0,345.8147,16.2801,0.90969,30.4653,0,
119,1,5,2,261,0,75.0066,49.9063,17.851,0,0,0,3,0,0,0,17.851,51.4122,1.2985,33.5613,0,
119,1,5,2,262,1,108.7804,256.4412,78.0309,2,3,1,3,0,1,0,78.0309,NaN,100000,999,0,
119,1,5,2,263,0,136.1479,165.0346,318.8332,0,0,0,1,0,0,0,136.1479,149.7512,1.3054,13.6033,20,
119,1,5,2,264,1,197.5948,19.1099,348.1851,3,1,2,1,0,1,0,197.5948,NaN,100000,999,0,
119,1,5,2,265,1,107.0495,196.8559,226.1343,3,2,1,1,0,0,1,107.0495,161.2476,1.0555,54.1981,0,
119,1,5,2,266,0,168.9651,139.0778,48.7606,0,0,0,1,0,0,0,168.9651,157.3443,0.83324,-11.6209,30,
119,1,5,2,267,1,317.7818,139.8454,168.4456,1,3,2,1,1,0,0,317.7818,154.6712,0.63905,-163.1107,0,
119,1,5,2,268,0,345.0331,197.9865,288.2959,0,0,0,2,0,0,0,197.9865,329.5399,1.1109,131.5534,0,
119,1,5,2,269,0,168.9406,229.348,288.9377,0,0,0,3,0,0,0,288.9377,319.2603,1.34,30.3226,0,
119,1,5,2,270,1,165.9414,106.621,288.5802,2,1,3,2,1,0,0,106.621,65.06,0.91659,-41.5609,0,
119,1,5,2,271,1,168.5983,256.5138,47.2951,3,2,1,3,1,0,0,47.2951,43.6331,0.86101,-3.662,30,
119,1,5,2,272,1,17.1214,319.5277,287.0866,3,1,2,2,0,0,1,319.5277,334.3707,1.3471,14.8431,20,
119,1,5,2,273,0,285.9294,16.4572,317.3083,0,0,0,2,0,0,0,16.4572,342.3079,1.3124,-34.1493,0,
119,1,5,2,274,1,135.8698,195.5877,105.8702,2,3,1,1,0,0,1,135.8698,148.919,0.90963,13.0492,20,
119,1,5,2,275,1,107.3868,259.4494,195.3254,1,2,3,3,0,0,1,195.3254,180.3354,1.4233,-14.99,20,
119,1,5,2,276,1,136.9238,347.8132,168.1692,2,3,1,3,0,1,0,168.1692,NaN,100000,999,0,
119,1,5,2,277,1,227.7422,136.0392,108.9229,1,2,3,1,1,0,0,227.7422,213.53,0.91659,-14.2122,20,
119,1,5,2,278,1,138.9978,348.9808,289.7704,3,2,1,3,1,0,0,289.7704,318.4631,1.1735,28.6927,10,
119,1,5,2,279,0,136.8617,167.0285,17.1941,0,0,0,2,0,0,0,167.0285,59.1285,1.2013,-107.9,0,
119,1,5,2,280,0,318.5183,259.5948,138.3004,0,0,0,3,0,0,0,138.3004,143.3989,1.0485,5.0986,30,
119,1,5,2,281,1,225.1476,257.3617,288.3922,3,1,2,3,1,0,0,288.3922,296.0813,0.70818,7.6891,30,
119,1,5,2,282,0,19.5042,105.6908,48.9704,0,0,0,2,0,0,0,105.6908,138.7175,1.4999,33.0267,0,
119,1,5,2,283,1,45.9366,77.7282,136.2756,1,3,2,1,1,0,0,45.9366,19.0395,1.0277,-26.8971,10,
119,1,5,2,284,1,169.4306,45.747,257.1734,1,3,2,1,1,0,0,169.4306,168.6422,0.52772,-0.78841,40,
119,1,5,2,285,0,287.5569,16.0754,106.7305,0,0,0,2,0,0,0,16.0754,7.9966,0.88184,-8.0789,30,
119,1,5,2,286,1,287.3987,75.9933,316.1951,2,3,1,3,0,1,0,316.1951,NaN,100000,999,0,
119,1,5,2,287,1,259.6331,285.4745,76.8771,2,3,1,1,0,0,1,259.6331,225.724,0.81922,-33.9091,0,
119,1,5,2,288,0,197.3872,316.5277,47.5817,0,0,0,3,0,0,0,47.5817,41.6007,0.90967,-5.981,30,
119,1,5,2,289,0,319.7979,108.851,79.3751,0,0,0,3,0,0,0,79.3751,80.7985,1.3608,1.4234,40,
119,1,5,2,290,1,16.3184,229.58,348.0752,3,2,1,3,1,0,0,348.0752,16.4065,0.535,28.3313,10,
119,1,5,2,291,1,347.7596,17.0191,198.7506,2,1,3,1,0,1,0,347.7596,NaN,100000,999,0,
119,1,5,2,292,1,229.2868,75.9901,315.778,2,1,3,2,1,0,0,75.9901,68.3509,1.0554,-7.6392,30,
119,1,5,2,293,0,76.7418,17.4316,258.3976,0,0,0,3,0,0,0,258.3976,244.9861,1.6456,-13.4115,20,
119,1,5,2,294,0,139.9652,345.4822,196.5657,0,0,0,3,0,0,0,196.5657,204.7275,0.91655,8.1618,30,
119,1,5,2,295,1,258.5304,135.1951,198.0815,2,1,3,1,0,1,0,258.5304,NaN,100000,999,0,
119,1,5,2,296,0,79.9196,45.2887,106.9827,0,0,0,3,0,0,0,106.9827,113.7526,1.2985,6.7699,30,
119,1,5,2,297,1,139.4131,317.1872,79.1748,2,1,3,3,0,0,1,79.1748,145.6257,1.5276,66.4509,0,
119,1,5,2,298,0,169.0204,227.8133,108.7544,0,0,0,1,0,0,0,169.0204,176.431,1.1179,7.4106,30,
119,1,5,2,299,1,15.6194,315.9312,168.2325,1,2,3,1,1,0,0,15.6194,344.5021,1.0694,-31.1173,0,
119,1,5,2,300,1,108.8763,47.9592,16.8809,1,2,3,3,0,0,1,16.8809,17.1136,0.88842,0.23274,40,
119,1,6,2,301,0,46.9234,135.2004,227.9147,0,0,0,1,0,0,0,46.9234,43.2134,1.4581,-3.71,30,
119,1,6,2,302,0,195.7893,347.5433,258.0165,0,0,0,3,0,0,0,258.0165,215.5681,1.7161,-42.4484,0,
119,1,6,2,303,0,16.8971,197.9642,135.3425,0,0,0,2,0,0,0,197.9642,230.5821,1.3054,32.6179,0,
119,1,6,2,304,0,347.1749,287.7893,258.1939,0,0,0,1,0,0,0,347.1749,338.2776,1.5346,-8.8974,30,
119,1,6,2,305,1,16.4771,196.8306,76.7452,2,3,1,2,1,0,0,196.8306,200.9694,1.6943,4.1388,30,
119,1,6,2,306,1,317.1352,167.8886,349.4976,3,1,2,2,0,0,1,167.8886,201.4042,2.0346,33.5156,0,
119,1,6,2,307,0,349.4673,318.2654,15.2014,0,0,0,1,0,0,0,349.4673,352.9481,1.6943,3.4808,30,
119,1,6,2,308,1,348.6462,168.243,137.3733,2,1,3,2,1,0,0,168.243,164.4377,1.4304,-3.8052,30,
119,1,6,2,309,1,136.4477,45.0925,348.5075,2,1,3,2,1,0,0,45.0925,51.0701,1.104,5.9776,30,
119,1,6,2,310,1,315.7111,256.8779,168.9678,2,1,3,2,1,0,0,256.8779,234.869,1.2221,-22.0089,10,
119,1,6,2,311,1,169.758,196.7334,286.4866,1,3,2,1,1,0,0,169.758,170.0664,1.4721,0.30839,40,
119,1,6,2,312,1,259.5246,346.4085,138.0694,1,2,3,2,0,1,0,346.4085,NaN,100000,999,0,
119,1,6,2,313,0,225.0449,48.5914,257.2471,0,0,0,1,0,0,0,225.0449,202.2115,0.97904,-22.8334,10,
119,1,6,2,314,1,109.9422,346.2555,196.5774,1,3,2,1,1,0,0,109.9422,127.0207,1.062,17.0785,20,
119,1,6,2,315,0,46.3042,227.4654,109.2792,0,0,0,3,0,0,0,109.2792,124.2005,2.3542,14.9213,20,
119,1,6,2,316,0,257.3016,227.5784,76.36,0,0,0,3,0,0,0,76.36,92.7238,1.4929,16.3638,20,
119,1,6,2,317,1,257.7944,16.1293,135.5226,1,2,3,2,0,1,0,16.1293,NaN,100000,999,0,
119,1,6,2,318,1,19.299,47.9853,288.2738,2,1,3,1,0,1,0,19.299,NaN,100000,999,0,
119,1,6,2,319,1,195.14,255.3342,79.6353,3,1,2,3,1,0,0,79.6353,43.6689,1.1731,-35.9665,0,
119,1,6,2,320,1,15.1824,255.3184,106.6144,1,3,2,2,0,0,1,255.3184,231.4961,1.3749,-23.8224,10,
119,1,6,2,321,0,107.9897,225.1151,19.4971,0,0,0,1,0,0,0,107.9897,113.2609,1.486,5.2712,30,
119,1,6,2,322,0,197.2525,47.8892,285.3742,0,0,0,2,0,0,0,47.8892,60.3153,1.0971,12.4261,20,
119,1,6,2,323,1,17.2564,316.2498,139.7772,2,3,1,2,1,0,0,316.2498,338.8696,1.6526,22.6197,10,
119,1,6,2,324,0,17.2228,288.1376,347.6732,0,0,0,3,0,0,0,347.6732,337.3879,0.9301,-10.2853,30,
119,1,6,2,325,1,317.5363,165.5686,257.4522,3,1,2,3,1,0,0,257.4522,244.8856,1.2981,-12.5666,20,
119,1,6,2,326,1,47.5541,317.8229,199.9686,2,1,3,2,1,0,0,317.8229,337.9463,1.2707,20.1234,20,
119,1,6,2,327,0,106.6799,75.7242,346.2244,0,0,0,2,0,0,0,75.7242,55.9424,0.97206,-19.7818,20,
119,1,6,2,328,1,169.2888,79.31,346.5665,1,3,2,3,0,1,0,346.5665,NaN,100000,999,0,
119,1,6,2,329,1,319.3634,106.4291,198.2842,3,1,2,3,1,0,0,198.2842,189.6877,1.2846,-8.5965,30,
119,1,6,2,330,1,349.5954,197.0535,78.6618,3,1,2,1,0,1,0,349.5954,NaN,100000,999,0,
119,1,6,2,331,1,15.0076,347.81,287.7324,3,1,2,3,1,0,0,287.7324,298.3247,0.993,10.5923,30,
119,1,6,2,332,1,285.9061,227.1312,255.4908,1,3,2,1,1,0,0,285.9061,309.9334,1.7777,24.0273,10,
119,1,6,2,333,1,345.6878,197.1204,228.8228,3,1,2,3,1,0,0,228.8228,214.6137,1.3401,-14.2091,20,
119,1,6,2,334,1,165.8893,259.9342,75.085,2,1,3,1,0,1,0,165.8893,NaN,100000,999,0,
119,1,6,2,335,1,18.1545,289.4599,318.367,1,2,3,1,1,0,0,18.1545,24.9909,1.4235,6.8364,30,
119,1,6,2,336,1,227.6908,319.5507,166.7535,1,3,2,3,0,1,0,166.7535,NaN,100000,999,0,
119,1,6,2,337,0,256.578,109.9701,229.9195,0,0,0,1,0,0,0,256.578,215.8332,1.111,-40.7448,0,
119,1,6,2,338,1,258.626,319.1718,285.0945,3,2,1,1,0,0,1,258.626,77.2025,2.222,178.5765,0,
119,1,6,2,339,0,289.6574,136.8901,18.0884,0,0,0,1,0,0,0,289.6574,233.7472,0.80545,-55.9101,0,
119,1,6,2,340,1,107.9087,195.499,225.833,3,1,2,3,1,0,0,225.833,211.846,1.6384,-13.987,20,
119,1,6,2,341,0,19.4256,46.0482,167.4018,0,0,0,2,0,0,0,46.0482,43.3493,0.99973,-2.6989,40,
119,1,6,2,342,1,78.6958,106.2681,18.5963,1,2,3,2,0,1,0,106.2681,NaN,100000,999,0,
119,1,6,2,343,0,258.1371,347.3141,105.6472,0,0,0,3,0,0,0,105.6472,110.0286,1.7221,4.3814,30,
119,1,6,2,344,0,229.993,137.5676,346.9392,0,0,0,1,0,0,0,229.993,210.0278,1.0555,-19.9652,20,
119,1,6,2,345,1,199.8122,16.5687,48.9854,2,1,3,2,1,0,0,16.5687,29.8728,0.61801,13.3042,20,
119,1,6,2,346,1,49.5963,169.9447,79.663,2,1,3,3,0,0,1,79.663,48.8582,0.96505,-30.8048,0,
119,1,6,2,347,1,195.941,315.5034,346.4328,2,1,3,2,1,0,0,315.5034,334.2596,1.347,18.7562,20,
119,1,6,2,348,1,106.7758,228.1557,19.3227,1,3,2,1,1,0,0,106.7758,130.313,0.79891,23.5372,10,
119,1,6,2,349,1,16.1481,136.7947,46.8158,3,1,2,3,1,0,0,46.8158,26.8475,1.1457,-19.9683,20,
119,1,6,2,350,0,346.4404,166.8831,225.7325,0,0,0,1,0,0,0,346.4404,335.3547,2.2845,-11.0857,30,
119,1,6,2,351,1,255.7971,226.3939,18.2247,3,2,1,1,0,0,1,255.7971,313.8259,1.7428,58.0288,0,
119,1,6,2,352,0,75.5483,347.8292,256.3717,0,0,0,3,0,0,0,256.3717,265.0379,1.2914,8.6662,30,
119,1,6,2,353,1,288.1388,77.2337,19.0555,1,3,2,1,1,0,0,288.1388,313.1888,1.3538,25.05,10,
119,1,6,2,354,0,196.9487,15.7521,166.6685,0,0,0,3,0,0,0,166.6685,191.692,1.9652,25.0235,10,
119,1,6,2,355,0,106.9478,257.4507,79.4345,0,0,0,1,0,0,0,106.9478,93.8321,1.0483,-13.1157,20,
119,1,6,2,356,1,319.31,345.6282,258.2279,3,1,2,3,1,0,0,258.2279,258.0766,1.1249,-0.15131,40,
119,1,6,2,357,1,138.9567,288.2831,107.7184,2,3,1,2,1,0,0,288.2831,312.6318,1.7568,24.3488,10,
119,1,6,2,358,0,315.156,289.1379,16.3213,0,0,0,3,0,0,0,16.3213,3.5243,0.93026,-12.797,20,
119,1,6,2,359,0,258.0154,135.9201,225.4373,0,0,0,1,0,0,0,258.0154,232.8688,0.73602,-25.1465,10,
119,1,6,2,360,1,139.5235,198.8365,47.8133,2,1,3,2,1,0,0,198.8365,154.1929,2.3818,-44.6436,0,
119,1,7,1,361,1,137.7436,195.0777,75.4734,2,1,3,2,1,0,0,195.0777,196.7901,0.86103,1.7124,40,
119,1,7,1,362,1,256.7246,198.4634,348.583,1,2,3,1,1,0,0,256.7246,249.5688,0.74953,-7.1558,30,
119,1,7,1,363,1,135.1638,79.2181,258.8515,2,1,3,2,1,0,0,79.2181,94.1291,1.1319,14.911,20,
119,1,7,1,364,1,318.2542,229.9111,195.9692,1,2,3,2,0,1,0,229.9111,240.0956,1.4721,10.1846,30,
119,1,7,1,365,1,108.4551,288.2361,228.1172,3,1,2,3,1,0,0,228.1172,215.506,1.4999,-12.6112,20,
119,1,7,1,366,0,346.1287,288.3308,49.3567,0,0,0,1,0,0,0,346.1287,358.6882,3.0761,12.5595,20,
119,1,7,1,367,1,228.7525,46.6696,168.1642,3,2,1,3,1,0,0,168.1642,163.5004,1.6597,-4.6638,30,
119,1,7,1,368,1,226.3755,139.1398,258.9639,1,2,3,3,0,0,1,258.9639,241.2926,1.3328,-17.6713,20,
119,1,7,1,369,1,79.0965,319.6324,17.5706,3,1,2,2,0,0,1,319.6324,342.1557,1.1245,22.5234,10,
119,1,7,1,370,1,319.6235,15.2778,76.9202,2,1,3,1,0,1,0,319.6235,336.6045,1.6457,16.981,20,
119,1,7,1,371,0,319.6585,285.5445,48.2585,0,0,0,1,0,0,0,319.6585,335.6761,1.6319,16.0176,20,
119,1,7,1,372,0,106.2626,258.2717,15.3005,0,0,0,3,0,0,0,15.3005,25.2462,0.8402,9.9457,30,
119,1,7,1,373,0,49.0672,258.9382,345.6216,0,0,0,2,0,0,0,258.9382,242.0125,1.0902,-16.9256,20,
119,1,7,1,374,1,166.1154,197.5488,18.9387,3,2,1,1,0,0,1,166.1154,189.7761,1.2915,23.6607,10,
119,1,7,1,375,0,135.6449,196.0742,226.4641,0,0,0,1,0,0,0,135.6449,168.2985,1.0624,32.6536,0,
119,1,7,1,376,1,258.7972,46.9971,227.8371,3,2,1,1,0,0,1,258.7972,218.781,1.2362,-40.0162,0,
119,1,7,1,377,1,19.3937,136.9647,106.2132,3,1,2,3,1,0,0,106.2132,130.3718,1.1528,24.1586,10,
119,1,7,1,378,1,198.1299,16.6345,346.5555,1,3,2,2,0,0,1,16.6345,224.3995,1.6735,-152.235,0,
119,1,7,1,379,0,255.9533,317.2465,78.8433,0,0,0,2,0,0,0,317.2465,233.8935,1.0277,-83.353,0,
119,1,7,1,380,1,106.7368,288.8994,198.5417,1,3,2,3,0,1,0,198.5417,207.1878,1.1805,8.6461,30,
119,1,7,1,381,1,226.6913,289.8702,169.7739,1,3,2,1,1,0,0,226.6913,219.2359,1.6248,-7.4554,30,
119,1,7,1,382,1,75.0635,45.6611,226.9403,1,3,2,1,1,0,0,75.0635,50.6181,1.3957,-24.4454,10,
119,1,7,1,383,0,195.7207,48.1759,349.0121,0,0,0,2,0,0,0,48.1759,55.6901,1.1319,7.5142,30,
119,1,7,1,384,1,135.4763,286.2294,199.6733,3,1,2,2,0,0,1,286.2294,324.4296,1.3887,38.2002,0,
119,1,7,1,385,0,107.2227,346.6329,286.4365,0,0,0,1,0,0,0,107.2227,149.2665,1.3819,42.0437,0,
119,1,7,1,386,0,167.3073,257.9357,47.388,0,0,0,3,0,0,0,47.388,54.321,1.5068,6.933,30,
119,1,7,1,387,0,105.1816,45.943,347.8877,0,0,0,1,0,0,0,105.1816,130.1862,1.2288,25.0046,10,
119,1,7,1,388,0,197.7527,139.9306,168.4489,0,0,0,2,0,0,0,139.9306,148.1327,1.3471,8.2021,30,
119,1,7,1,389,1,106.463,49.1621,137.8526,2,3,1,2,1,0,0,49.1621,52.0677,0.96478,2.9056,40,
119,1,7,1,390,0,18.0356,289.7875,76.6533,0,0,0,1,0,0,0,18.0356,352.6742,1.6662,-25.3614,10,
119,1,7,1,391,1,45.3576,315.0784,289.8684,3,1,2,3,1,0,0,289.8684,290.8061,1.0207,0.93775,40,
119,1,7,1,392,1,78.5901,105.9445,317.1697,3,1,2,3,1,0,0,317.1697,312.2151,0.72209,-4.9546,30,
119,1,7,1,393,1,319.7139,18.3713,226.9283,2,3,1,2,1,0,0,18.3713,31.4908,1.0416,13.1195,20,
119,1,7,1,394,1,196.9913,225.6865,319.7638,3,2,1,3,1,0,0,319.7638,310.0831,1.3682,-9.6807,30,
119,1,7,1,395,0,75.4069,138.9374,255.872,0,0,0,1,0,0,0,75.4069,66.4711,1.3054,-8.9359,30,
119,1,7,1,396,0,347.3247,229.1204,79.3594,0,0,0,3,0,0,0,79.3594,53.0477,1.5832,-26.3117,10,
119,1,7,1,397,0,199.4692,169.205,48.4164,0,0,0,1,0,0,0,199.4692,207.5878,1.2708,8.1186,30,
119,1,7,1,398,1,106.0224,15.3143,48.1119,3,1,2,3,1,0,0,48.1119,43.3703,1.0485,-4.7416,30,
119,1,7,1,399,1,347.7221,289.2307,45.2035,1,3,2,1,1,0,0,347.7221,345.2126,1.9165,-2.5095,40,
119,1,7,1,400,1,288.0459,259.8347,198.8666,1,3,2,1,1,0,0,288.0459,339.0097,1.6593,50.9638,0,
119,1,7,1,401,0,138.5923,169.9766,75.4185,0,0,0,1,0,0,0,138.5923,158.1069,1.2429,19.5146,20,
119,1,7,1,402,1,138.4918,47.2984,315.7883,3,1,2,3,1,0,0,315.7883,307.7359,0.59723,-8.0524,30,
119,1,7,1,403,1,318.6274,135.6952,168.1628,3,1,2,1,0,1,0,318.6274,148.5289,1.2774,-170.0986,0,
119,1,7,1,404,1,198.2711,316.0916,345.5957,3,1,2,3,1,0,0,345.5957,334.7628,0.91655,-10.8329,30,
119,1,7,1,405,1,19.5455,197.2517,168.7432,1,3,2,3,0,1,0,168.7432,144.9706,1.8957,-23.7726,10,
119,1,7,1,406,0,196.9978,48.2766,317.8342,0,0,0,3,0,0,0,317.8342,309.3864,0.88179,-8.4478,30,
119,1,7,1,407,1,18.4428,258.0195,106.9348,2,3,1,3,0,1,0,106.9348,141.0826,2.0415,34.1478,0,
119,1,7,1,408,0,18.089,137.9711,318.3294,0,0,0,3,0,0,0,318.3294,306.662,0.64589,-11.6674,30,
119,1,7,1,409,0,285.4329,319.6342,15.7424,0,0,0,1,0,0,0,285.4329,290.2599,1.6939,4.8269,30,
119,1,7,1,410,0,167.2618,137.6668,287.6333,0,0,0,2,0,0,0,137.6668,76.2526,1.3541,-61.4142,0,
119,1,7,1,411,1,257.6176,76.6841,136.6619,3,1,2,3,1,0,0,136.6619,155.1674,1.5832,18.5055,20,
119,1,7,1,412,1,318.6127,255.6712,169.2655,2,3,1,2,1,0,0,255.6712,291.7353,1.5762,36.0641,0,
119,1,7,1,413,1,195.6399,167.3218,78.713,1,3,2,1,1,0,0,195.6399,180.7059,0.69438,-14.934,20,
119,1,7,1,414,0,255.0215,348.2625,136.8484,0,0,0,2,0,0,0,348.2625,352.0356,1.3957,3.7732,30,
119,1,7,1,415,0,169.2599,195.5886,108.2863,0,0,0,3,0,0,0,108.2863,128.772,1.1596,20.4857,20,
119,1,7,1,416,0,108.0519,256.2399,137.5898,0,0,0,1,0,0,0,108.0519,114.7588,1.2984,6.7069,30,
119,1,7,1,417,1,315.776,79.9704,137.2512,1,2,3,1,1,0,0,315.776,139.0721,0.79855,-176.704,0,
119,1,7,1,418,1,109.5576,45.6649,285.2108,2,1,3,3,0,0,1,285.2108,301.7353,0.93047,16.5245,20,
119,1,7,1,419,0,285.9982,227.6508,348.1368,0,0,0,1,0,0,0,285.9982,312.9235,2.097,26.9253,10,
119,1,7,1,420,1,285.1161,195.8806,349.3046,2,3,1,2,1,0,0,195.8806,185.9159,1.479,-9.9647,30,
119,1,8,1,421,1,139.1592,226.9724,75.4832,2,3,1,2,1,0,0,226.9724,231.0064,0.90959,4.034,30,
119,1,8,1,422,1,258.0006,19.9983,285.6459,3,1,2,3,1,0,0,285.6459,295.0529,0.99996,9.407,30,
119,1,8,1,423,0,347.863,79.9688,136.8148,0,0,0,2,0,0,0,79.9688,73.2836,1.2637,-6.6852,30,
119,1,8,1,424,1,138.8927,289.0539,347.4898,3,2,1,3,1,0,0,347.4898,335.8721,0.87472,-11.6177,30,
119,1,8,1,425,0,139.122,45.8653,229.3182,0,0,0,3,0,0,0,229.3182,326.8644,0.99261,97.5462,0,
119,1,8,1,426,1,138.0311,78.9619,49.1808,2,1,3,2,1,0,0,78.9619,76.0244,0.97904,-2.9375,40,
119,1,8,1,427,0,46.1867,195.6983,256.1037,0,0,0,2,0,0,0,195.6983,231.8482,1.3542,36.1499,0,
119,1,8,1,428,1,346.4768,289.5354,227.4644,3,2,1,3,1,0,0,227.4644,212.5504,1.4304,-14.914,20,
119,1,8,1,429,1,47.187,79.2999,15.0445,1,3,2,1,1,0,0,47.187,37.9813,1.1457,-9.2056,30,
119,1,8,1,430,0,79.2645,348.4328,109.7906,0,0,0,2,0,0,0,348.4328,81.9703,1.2498,93.5375,0,
119,1,8,1,431,1,166.9384,345.2837,198.4479,3,2,1,3,1,0,0,198.4479,202.3588,1.8538,3.9109,30,
119,1,8,1,432,0,46.1005,196.179,169.0506,0,0,0,3,0,0,0,169.0506,169.29,1.4236,0.23932,40,
119,1,8,1,433,0,285.1488,259.3335,319.4721,0,0,0,2,0,0,0,259.3335,281.3514,1.7081,22.0179,10,
119,1,8,1,434,0,315.0558,256.1726,168.5349,0,0,0,1,0,0,0,315.0558,326.4133,2.8122,11.3574,30,
119,1,8,1,435,1,138.3282,106.1507,49.0244,2,3,1,2,1,0,0,106.1507,114.5478,1.4721,8.3971,30,
119,1,8,1,436,0,167.1549,138.8245,349.9823,0,0,0,3,0,0,0,349.9823,335.4352,1.1665,-14.5471,20,
119,1,8,1,437,0,107.9765,77.5306,228.882,0,0,0,2,0,0,0,77.5306,70.774,1.0136,-6.7565,30,
119,1,8,1,438,1,165.7078,228.0405,49.6531,3,2,1,1,0,0,1,165.7078,163.6858,1.1247,-2.0221,40,
119,1,8,1,439,1,348.1345,49.685,316.5997,2,1,3,3,0,0,1,316.5997,300.534,0.91656,-16.0657,20,
119,1,8,1,440,1,75.7592,348.6651,45.1985,2,1,3,2,1,0,0,348.6651,1.4511,1.5762,12.786,20,
119,1,8,1,441,1,166.6833,319.4168,46.6683,3,2,1,3,1,0,0,46.6683,32.9796,1.5276,-13.6887,20,
119,1,8,1,442,1,78.6986,197.224,109.252,1,2,3,2,0,1,0,197.224,250.7291,2.3262,53.5052,0,
119,1,8,1,443,1,227.4811,166.4383,105.9151,1,3,2,1,1,0,0,227.4811,217.9776,1.2985,-9.5034,30,
119,1,8,1,444,0,226.7599,195.5008,288.965,0,0,0,1,0,0,0,226.7599,203.0671,0.95829,-23.6928,10,
119,1,8,1,445,1,228.4323,319.7786,106.5395,1,2,3,1,1,0,0,228.4323,203.6415,1.2564,-24.7908,10,
119,1,8,1,446,0,79.7326,317.4622,348.7411,0,0,0,1,0,0,0,79.7326,36.2786,1.5276,-43.454,0,
119,1,8,1,447,0,45.9115,197.797,18.1324,0,0,0,3,0,0,0,18.1324,35.3938,1.7496,17.2614,20,
119,1,8,1,448,1,18.6621,168.1551,287.341,3,2,1,3,1,0,0,287.341,302.3865,1.1041,15.0455,20,
119,1,8,1,449,1,136.0884,285.0426,346.5031,3,1,2,3,1,0,0,346.5031,346.4121,0.89538,-0.091046,40,
119,1,8,1,450,0,315.1533,349.0435,225.2357,0,0,0,2,0,0,0,349.0435,262.5092,2.2429,-86.5343,0,
119,1,8,1,451,1,138.6936,315.0693,168.3956,2,3,1,3,0,1,0,168.3956,171.67,1.8609,3.2744,30,
119,1,8,1,452,1,46.0342,105.1868,78.3168,3,2,1,3,1,0,0,78.3168,71.4321,1.7012,-6.8848,30,
119,1,8,1,453,0,165.0947,45.9217,15.1337,0,0,0,2,0,0,0,45.9217,62.6501,0.95821,16.7284,20,
119,1,8,1,454,0,348.5217,318.8731,289.1133,0,0,0,3,0,0,0,289.1133,288.1104,1.0555,-1.0029,40,
119,1,8,1,455,1,139.6704,47.9709,317.9655,2,1,3,2,1,0,0,47.9709,59.4982,0.53448,11.5273,30,
119,1,8,1,456,1,286.0016,45.0729,168.8158,2,3,1,2,1,0,0,45.0729,58.1407,0.63191,13.0678,20,
119,1,8,1,457,1,195.2941,256.1198,15.8399,3,1,2,3,1,0,0,15.8399,18.2057,1.9304,2.3658,40,
119,1,8,1,458,1,138.5184,169.1855,258.6365,1,2,3,1,1,0,0,138.5184,151.3571,1.4304,12.8387,20,
119,1,8,1,459,1,19.902,108.5641,259.1282,3,2,1,2,0,1,0,108.5641,80.4622,1.0763,-28.1019,10,
119,1,8,1,460,1,108.5872,226.0126,318.2188,2,1,3,2,1,0,0,226.0126,70.8632,0.90971,-155.1494,0,
119,1,8,1,461,0,19.6597,105.4666,288.6939,0,0,0,3,0,0,0,288.6939,284.5176,0.9027,-4.1763,30,
119,1,8,1,462,1,109.9663,18.7877,196.3753,3,1,2,2,0,0,1,18.7877,61.1884,0.99993,42.4007,0,
119,1,8,1,463,0,139.1878,168.7421,197.9193,0,0,0,3,0,0,0,197.9193,225.9598,1.1388,28.0405,10,
119,1,8,1,464,0,136.7104,259.36,16.3401,0,0,0,3,0,0,0,16.3401,4.3579,1.111,-11.9822,30,
119,1,8,1,465,1,136.4382,79.6219,316.4924,3,2,1,2,0,1,0,79.6219,54.7993,1.1801,-24.8225,10,
119,1,8,1,466,1,196.6333,136.0981,167.5911,3,1,2,3,1,0,0,167.5911,179.6287,1.229,12.0375,20,
119,1,8,1,467,1,226.3809,318.4812,259.4068,3,2,1,3,1,0,0,259.4068,258.0874,1.2426,-1.3193,40,
119,1,8,1,468,0,18.9916,169.3163,138.9898,0,0,0,2,0,0,0,169.3163,211.5406,1.4093,42.2243,0,
119,1,8,1,469,1,15.3526,75.3001,108.3079,3,1,2,3,1,0,0,108.3079,117.833,1.8888,9.5251,30,
119,1,8,1,470,0,46.2786,346.8916,169.9687,0,0,0,1,0,0,0,46.2786,33.3001,1.1246,-12.9785,20,
119,1,8,1,471,1,345.2622,106.6171,78.9984,3,1,2,3,1,0,0,78.9984,38.8835,1.4235,-40.1149,0,
119,1,8,1,472,0,348.2674,166.2214,78.7896,0,0,0,3,0,0,0,78.7896,110.9373,1.7012,32.1478,0,
119,1,8,1,473,1,106.559,257.9588,76.8881,1,2,3,2,0,1,0,257.9588,83.2277,0.98632,-174.7311,0,
119,1,8,1,474,1,317.6116,229.0412,257.2379,2,1,3,3,0,0,1,257.2379,261.9731,0.89538,4.7352,30,
119,1,8,1,475,1,287.5106,197.8513,19.2574,1,3,2,1,1,0,0,287.5106,274.3819,1.4443,-13.1287,20,
119,1,8,1,476,0,227.7234,199.2796,318.2134,0,0,0,1,0,0,0,227.7234,220.8094,0.82632,-6.914,30,
119,1,8,1,477,1,76.0947,286.1864,255.0432,1,3,2,3,0,1,0,255.0432,277.0437,1.2011,22.0006,10,
119,1,8,1,478,1,317.4562,198.8708,225.7391,2,3,1,3,0,1,0,225.7391,277.2779,0.77077,51.5388,0,
119,1,8,1,479,1,46.7157,195.3171,168.0624,1,3,2,2,0,0,1,195.3171,237.8944,1.486,42.5773,0,
119,1,8,1,480,1,285.5423,79.2688,319.5543,3,1,2,3,1,0,0,319.5543,311.9123,0.87488,-7.6419,30,
