Subject,Session,Block,Condition,Trial,whetherCued,leftStim,rightStim,midStim,remCueLoc,fogCueLoc,neutralCueLoc,probeCueLoc,probeRem,probeForget,probeNeutral,Target,Estimate,RT,Error,Points
103,1,1,1,1,0,136.1214,256.3453,18.3652,0,0,0,2,0,0,0,256.3453,133.2657,2.4512,-123.0796,0,
103,1,1,1,2,0,289.4795,225.4954,105.2208,0,0,0,1,0,0,0,289.4795,297.5242,2.7429,8.0447,30,
103,1,1,1,3,1,347.5064,287.1586,109.9878,2,1,3,2,1,0,0,287.1586,241.9709,2.5835,-45.1878,0,
103,1,1,1,4,0,348.6529,108.2324,289.1658,0,0,0,1,0,0,0,348.6529,181.1914,7.0133,-167.4615,0,
103,1,1,1,5,1,107.4617,228.4737,289.8637,3,2,1,3,1,0,0,289.8637,285.4303,0.937,-4.4333,30,
103,1,1,1,6,1,138.3022,255.2378,226.7439,2,3,1,1,0,0,1,138.3022,118.158,1.8406,-20.1442,20,
103,1,1,1,7,1,197.5189,257.448,49.3852,3,1,2,3,1,0,0,49.3852,30.9386,1.9032,-18.4466,20,
103,1,1,1,8,1,105.0963,165.4194,19.874,1,2,3,1,1,0,0,105.0963,114.3953,1.9447,9.299,30,
103,1,1,1,9,0,349.6502,286.9951,105.237,0,0,0,1,0,0,0,349.6502,359.4578,1.8125,9.8076,30,
103,1,1,1,10,0,259.389,197.9122,285.3534,0,0,0,1,0,0,0,259.389,275.8102,2.0485,16.4212,20,
103,1,1,1,11,1,317.5194,78.234,226.5387,2,1,3,2,1,0,0,78.234,70.7171,1.8821,-7.5169,30,
103,1,1,1,12,1,226.4331,199.0041,19.4806,2,1,3,2,1,0,0,199.0041,26.4972,1.9096,-172.5069,0,
103,1,1,1,13,1,199.1477,319.2454,226.8627,1,2,3,1,1,0,0,199.1477,221.3205,1.5277,22.1728,10,
103,1,1,1,14,1,198.7837,137.0852,229.8589,1,2,3,2,0,1,0,137.0852,224.283,2.2361,87.1978,0,
103,1,1,1,15,1,317.252,136.0284,79.4983,1,2,3,3,0,0,1,79.4983,61.3567,1.6042,-18.1415,20,
103,1,1,1,16,0,166.9501,227.4895,288.474,0,0,0,1,0,0,0,166.9501,190.5983,4.7643,23.6482,10,
103,1,1,1,17,0,255.5852,109.0734,346.6243,0,0,0,3,0,0,0,346.6243,14.5958,1.6041,27.9715,10,
103,1,1,1,18,1,19.1594,45.6717,75.3023,2,3,1,2,1,0,0,45.6717,56.3504,1.4515,10.6787,30,
103,1,1,1,19,1,139.9843,17.7677,197.5773,1,2,3,1,1,0,0,139.9843,85.335,2.0971,-54.6493,0,
103,1,1,1,20,1,169.6556,105.9539,16.2929,1,2,3,2,0,1,0,105.9539,68.2559,1.7985,-37.6981,0,
103,1,1,1,21,0,198.6008,256.7345,227.585,0,0,0,1,0,0,0,198.6008,165.4425,2.4999,-33.1583,0,
103,1,1,1,22,0,47.1514,228.4688,289.7261,0,0,0,2,0,0,0,228.4688,236.418,2.2291,7.9493,30,
103,1,1,1,23,0,288.3452,197.5011,346.09,0,0,0,1,0,0,0,288.3452,259.3734,2.5138,-28.9719,10,
103,1,1,1,24,1,229.3193,135.4885,169.5403,3,2,1,1,0,0,1,229.3193,265.9228,1.826,36.6035,0,
103,1,1,1,25,1,137.5392,347.928,18.8144,1,2,3,1,1,0,0,137.5392,126.012,2.6596,-11.5273,30,
103,1,1,1,26,0,17.7694,108.4003,196.8359,0,0,0,2,0,0,0,108.4003,140.1862,1.5138,31.7858,0,
103,1,1,1,27,1,135.7013,16.3007,195.4341,3,2,1,3,1,0,0,195.4341,215.7085,1.986,20.2744,20,
103,1,1,1,28,1,346.1034,285.0065,135.9459,1,2,3,2,0,1,0,285.0065,282.897,1.8263,-2.1095,40,
103,1,1,1,29,0,105.3418,17.1816,75.8693,0,0,0,1,0,0,0,105.3418,98.541,1.7013,-6.8008,30,
103,1,1,1,30,1,166.1401,16.8543,319.4546,2,3,1,2,1,0,0,16.8543,24.1322,1.9027,7.2779,30,
103,1,1,1,31,1,347.6621,78.5825,225.8965,2,3,1,1,0,0,1,347.6621,323.8983,2.5276,-23.7639,10,
103,1,1,1,32,1,169.6783,319.0936,48.6413,1,3,2,1,1,0,0,169.6783,157.31,1.7916,-12.3683,20,
103,1,1,1,33,1,108.812,17.8803,78.7383,3,1,2,3,1,0,0,78.7383,62.978,1.6666,-15.7603,20,
103,1,1,1,34,1,347.6614,136.397,49.7312,2,3,1,2,1,0,0,136.397,136.485,2.1736,0.088071,40,
103,1,1,1,35,0,78.6346,196.8692,47.9079,0,0,0,2,0,0,0,196.8692,238.0108,1.9578,41.1416,0,
103,1,1,1,36,0,45.7597,16.9855,196.8736,0,0,0,3,0,0,0,196.8736,223.2402,2.5763,26.3666,10,
103,1,1,1,37,1,138.2116,316.1063,79.1853,2,1,3,2,1,0,0,316.1063,310.6229,2.1944,-5.4834,30,
103,1,1,1,38,0,319.2929,289.5553,168.4982,0,0,0,3,0,0,0,168.4982,147.6465,2.0832,-20.8516,20,
103,1,1,1,39,1,287.6468,199.1499,49.2938,3,1,2,2,0,0,1,199.1499,224.5543,2.0211,25.4044,10,
103,1,1,1,40,1,169.2518,139.5582,198.1964,1,3,2,1,1,0,0,169.2518,162.3067,1.6389,-6.9451,30,
103,1,1,1,41,1,169.1329,48.3844,286.038,3,2,1,3,1,0,0,286.038,290.165,1.4583,4.127,30,
103,1,1,1,42,1,287.2569,316.9132,48.9482,2,1,3,2,1,0,0,316.9132,317.0193,3.0762,0.10605,40,
103,1,1,1,43,0,228.7938,349.9761,315.9329,0,0,0,3,0,0,0,315.9329,311.4902,2.7429,-4.4426,30,
103,1,1,1,44,1,285.9688,47.1618,258.7458,2,1,3,2,1,0,0,47.1618,61.9624,2.369,14.8006,20,
103,1,1,1,45,0,19.6749,137.3974,346.159,0,0,0,2,0,0,0,137.3974,61.9409,2.833,-75.4565,0,
103,1,1,1,46,1,287.6548,259.506,317.7028,2,1,3,2,1,0,0,259.506,59.9169,0.87481,160.4108,0,
103,1,1,1,47,0,105.9911,165.9754,316.6342,0,0,0,3,0,0,0,316.6342,322.3627,1.368,5.7285,30,
103,1,1,1,48,1,109.0699,259.4922,77.1462,3,1,2,1,0,1,0,109.0699,287.8481,2.0003,178.7782,0,
103,1,1,1,49,1,315.4649,347.3174,285.0467,1,2,3,1,1,0,0,315.4649,297.0297,2.4166,-18.4353,20,
103,1,1,1,50,0,77.1828,225.2461,105.2482,0,0,0,1,0,0,0,77.1828,82.6839,2.076,5.5012,30,
103,1,1,1,51,1,17.3062,228.1966,259.5867,2,3,1,2,1,0,0,228.1966,247.5352,2.1457,19.3386,20,
103,1,1,1,52,1,19.9049,195.6352,286.1612,1,3,2,1,1,0,0,19.9049,13.3106,2.1665,-6.5943,30,
103,1,1,1,53,0,19.2845,75.217,318.4581,0,0,0,2,0,0,0,75.217,57.3736,1.9304,-17.8433,20,
103,1,1,1,54,1,79.095,348.1246,228.6928,3,2,1,3,1,0,0,228.6928,233.4756,1.3056,4.7828,30,
103,1,1,1,55,1,49.4771,227.9126,257.9137,1,3,2,1,1,0,0,49.4771,59.0846,2.1458,9.6075,30,
103,1,1,1,56,1,47.0319,136.931,228.049,2,1,3,3,0,0,1,228.049,223.3449,1.4375,-4.7041,30,
103,1,1,1,57,1,77.6151,16.6265,49.1592,2,3,1,2,1,0,0,16.6265,231.0235,1.986,-145.603,0,
103,1,1,1,58,0,137.6428,345.2572,78.7844,0,0,0,2,0,0,0,345.2572,334.6644,2.1738,-10.5928,30,
103,1,1,1,59,0,168.7425,317.7165,226.6907,0,0,0,2,0,0,0,317.7165,325.9799,2.1041,8.2634,30,
103,1,1,1,60,1,315.1258,197.0721,138.657,2,1,3,3,0,0,1,138.657,137.9522,2.4374,-0.70486,40,
103,1,2,1,61,0,315.8145,169.192,195.8378,0,0,0,3,0,0,0,195.8378,202.8952,2.1597,7.0574,30,
103,1,2,1,62,0,109.7017,135.0292,228.0515,0,0,0,2,0,0,0,135.0292,141.9185,1.8333,6.8893,30,
103,1,2,1,63,1,256.4523,47.0128,289.3103,1,3,2,3,0,1,0,289.3103,302.4288,2.3541,13.1185,20,
103,1,2,1,64,1,319.2054,76.7725,167.1503,1,3,2,2,0,0,1,76.7725,64.624,1.2707,-12.1485,20,
103,1,2,1,65,1,289.8173,135.4295,167.5025,3,2,1,3,1,0,0,167.5025,143.9208,2.8679,-23.5817,10,
103,1,2,1,66,0,46.5193,197.4165,346.6891,0,0,0,1,0,0,0,46.5193,69.8982,1.7221,23.379,10,
103,1,2,1,67,0,79.9262,107.7974,169.668,0,0,0,2,0,0,0,107.7974,108.4497,1.3125,0.65229,40,
103,1,2,1,68,1,135.5422,165.1806,228.0905,2,1,3,2,1,0,0,165.1806,146.1377,2.0136,-19.0429,20,
103,1,2,1,69,0,259.4502,346.651,166.1485,0,0,0,1,0,0,0,259.4502,259.2489,2.2153,-0.2013,40,
103,1,2,1,70,0,135.5697,19.8928,79.243,0,0,0,3,0,0,0,79.243,53.8489,3.347,-25.3941,10,
103,1,2,1,71,0,285.5402,17.2994,137.2544,0,0,0,3,0,0,0,137.2544,150.474,1.8889,13.2196,20,
103,1,2,1,72,1,138.7045,347.534,165.9996,2,3,1,2,1,0,0,347.534,347.6418,2.8957,0.10779,40,
103,1,2,1,73,1,169.3879,345.0718,46.4715,1,2,3,1,1,0,0,169.3879,171.0992,2.8401,1.7114,40,
103,1,2,1,74,1,227.7164,78.5126,19.7822,2,1,3,2,1,0,0,78.5126,77.2457,1.1597,-1.2669,40,
103,1,2,1,75,0,78.8751,319.5709,48.9128,0,0,0,2,0,0,0,319.5709,326.1029,1.8332,6.5319,30,
103,1,2,1,76,0,48.4957,168.9813,137.2079,0,0,0,3,0,0,0,137.2079,141.7263,2.4023,4.5184,30,
103,1,2,1,77,0,315.7287,287.9252,345.3668,0,0,0,3,0,0,0,345.3668,341.3529,1.986,-4.0139,30,
103,1,2,1,78,0,286.8252,226.5457,315.6046,0,0,0,1,0,0,0,286.8252,308.0242,2.0276,21.1991,10,
103,1,2,1,79,1,256.6999,319.2336,46.2303,1,3,2,1,1,0,0,256.6999,265.538,1.8332,8.838,30,
103,1,2,1,80,1,135.68,78.9445,105.462,2,1,3,1,0,1,0,135.68,95.7489,1.3542,-39.9312,0,
103,1,2,1,81,1,75.0988,319.8215,349.8519,2,3,1,2,1,0,0,319.8215,333.2507,1.5973,13.4292,20,
103,1,2,1,82,0,19.6916,226.2771,107.6658,0,0,0,2,0,0,0,226.2771,227.3184,1.8471,1.0413,40,
103,1,2,1,83,0,138.9798,226.1669,78.0042,0,0,0,2,0,0,0,226.1669,228.1428,1.6458,1.9759,40,
103,1,2,1,84,0,346.4868,16.9821,317.1038,0,0,0,3,0,0,0,317.1038,331.5699,1.7153,14.4662,20,
103,1,2,1,85,1,317.7541,79.3545,195.2113,1,2,3,2,0,1,0,79.3545,56.8483,2.0902,-22.5062,10,
103,1,2,1,86,1,47.5997,169.9459,257.4496,3,2,1,1,0,0,1,47.5997,71.2113,2.2846,23.6116,10,
103,1,2,1,87,1,79.0846,195.9474,105.6185,1,2,3,1,1,0,0,79.0846,84.9907,2.6108,5.9062,30,
103,1,2,1,88,1,76.6599,319.1987,286.8586,3,2,1,1,0,0,1,76.6599,73.4838,2.0763,-3.1762,30,
103,1,2,1,89,1,135.784,76.6302,46.5703,1,2,3,1,1,0,0,135.784,114.5384,1.5968,-21.2457,10,
103,1,2,1,90,0,286.0726,228.3995,167.7865,0,0,0,3,0,0,0,167.7865,205.2758,1.5416,37.4893,0,
103,1,2,1,91,1,287.0116,195.9092,139.2813,2,3,1,3,0,1,0,139.2813,151.0601,2.0207,11.7788,30,
103,1,2,1,92,1,225.9992,318.0367,107.7152,3,2,1,1,0,0,1,225.9992,180,1.0416,-45.9992,0,
103,1,2,1,93,1,48.791,169.4352,15.344,1,3,2,1,1,0,0,48.791,67.0036,1.3402,18.2126,20,
103,1,2,1,94,0,16.9081,317.8384,169.4393,0,0,0,1,0,0,0,16.9081,354.22,2.1384,-22.688,10,
103,1,2,1,95,1,139.6308,166.4925,256.6904,2,3,1,3,0,1,0,256.6904,54.8889,1.7152,158.1985,0,
103,1,2,1,96,1,346.3991,77.235,47.9379,1,2,3,1,1,0,0,346.3991,342.2805,2.1248,-4.1187,30,
103,1,2,1,97,1,349.442,316.1658,289.308,2,3,1,2,1,0,0,316.1658,323.0534,2.4232,6.8876,30,
103,1,2,1,98,0,287.6372,108.625,348.0371,0,0,0,2,0,0,0,108.625,102.1412,1.7221,-6.4837,30,
103,1,2,1,99,0,349.0746,135.7025,259.3993,0,0,0,1,0,0,0,349.0746,357.1309,1.8611,8.0563,30,
103,1,2,1,100,0,15.4219,229.8604,285.1573,0,0,0,2,0,0,0,229.8604,289.9073,1.9999,60.0468,0,
103,1,2,1,101,0,318.2673,77.4483,349.8643,0,0,0,2,0,0,0,77.4483,61.3342,1.5486,-16.114,20,
103,1,2,1,102,0,287.6205,225.601,105.889,0,0,0,3,0,0,0,105.889,113.3574,1.7363,7.4684,30,
103,1,2,1,103,1,77.9122,257.105,345.4603,1,3,2,1,1,0,0,77.9122,74.4744,1.5971,-3.4378,30,
103,1,2,1,104,1,15.8762,165.966,258.0821,1,3,2,1,1,0,0,15.8762,51.9758,1.993,36.0996,0,
103,1,2,1,105,1,288.861,317.3768,18.4045,3,1,2,3,1,0,0,18.4045,23.7562,1.7847,5.3517,30,
103,1,2,1,106,0,139.1315,79.956,197.6197,0,0,0,3,0,0,0,197.6197,211.0707,2.2917,13.451,20,
103,1,2,1,107,1,317.3578,347.715,225.2985,2,3,1,2,1,0,0,347.715,301.1857,2.4786,-46.5293,0,
103,1,2,1,108,0,79.1667,256.0186,227.7221,0,0,0,2,0,0,0,256.0186,251.0124,1.8747,-5.0062,30,
103,1,2,1,109,1,165.6614,49.3524,348.0148,2,3,1,1,0,0,1,165.6614,171.0898,1.6041,5.4284,30,
103,1,2,1,110,1,76.8968,319.3234,17.0998,1,2,3,1,1,0,0,76.8968,75.6692,1.6042,-1.2276,40,
103,1,2,1,111,0,349.1405,287.5372,16.8308,0,0,0,3,0,0,0,16.8308,58.698,1.5555,41.8672,0,
103,1,2,1,112,0,167.8456,109.3752,136.7429,0,0,0,2,0,0,0,109.3752,137.6685,1.604,28.2933,10,
103,1,2,1,113,0,17.3376,75.7067,45.3407,0,0,0,1,0,0,0,17.3376,52.3578,2.0833,35.0202,0,
103,1,2,1,114,1,346.2021,48.4245,319.1963,3,2,1,3,1,0,0,319.1963,320.3003,2.0763,1.1041,40,
103,1,2,1,115,0,316.9479,48.8765,285.8968,0,0,0,3,0,0,0,285.8968,295.3186,2.2916,9.4218,30,
103,1,2,1,116,0,169.6136,317.8213,17.1573,0,0,0,3,0,0,0,17.1573,19.724,1.7428,2.5667,40,
103,1,2,1,117,1,79.9629,257.2792,17.1302,1,3,2,3,0,1,0,17.1302,20.1338,1.5971,3.0036,30,
103,1,2,1,118,1,348.4165,318.0428,46.0983,2,1,3,2,1,0,0,318.0428,328.2721,1.5347,10.2293,30,
103,1,2,1,119,1,169.7606,319.8793,345.1546,1,2,3,1,1,0,0,169.7606,169.2025,1.993,-0.55809,40,
103,1,2,1,120,1,196.2163,77.8571,319.9086,2,1,3,1,0,1,0,196.2163,177.2198,2.2357,-18.9966,20,
103,1,3,2,121,0,315.19,49.7712,258.7119,0,0,0,3,0,0,0,258.7119,175.9213,2.1313,-82.7905,0,
103,1,3,2,122,1,256.3059,75.474,107.2548,2,3,1,2,1,0,0,75.474,63.6063,1.2093,-11.8677,30,
103,1,3,2,123,1,46.3872,285.0305,346.8736,1,3,2,1,1,0,0,46.3872,62.1932,1.4169,15.806,20,
103,1,3,2,124,0,105.9184,319.3083,75.1632,0,0,0,2,0,0,0,319.3083,309.7598,2.1107,-9.5485,30,
103,1,3,2,125,0,106.5588,195.2766,18.769,0,0,0,3,0,0,0,18.769,201.1473,1.736,-177.6217,0,
103,1,3,2,126,1,139.8817,17.9662,316.522,1,3,2,2,0,0,1,17.9662,41.7939,2.3194,23.8277,10,
103,1,3,2,127,1,108.4447,349.7301,229.3677,1,3,2,1,1,0,0,108.4447,111.452,1.9795,3.0073,30,
103,1,3,2,128,1,319.9646,15.8124,75.5678,3,1,2,3,1,0,0,75.5678,40.0492,1.6666,-35.5186,0,
103,1,3,2,129,1,317.5047,196.66,135.8694,2,3,1,2,1,0,0,196.66,183.6663,3.0901,-12.9936,20,
103,1,3,2,130,1,287.6892,169.3546,108.6142,3,2,1,3,1,0,0,108.6142,119.5778,1.7569,10.9636,30,
103,1,3,2,131,1,347.3686,289.756,46.2448,2,1,3,2,1,0,0,289.756,312.4875,2.0624,22.7315,10,
103,1,3,2,132,0,167.2609,19.246,46.9522,0,0,0,2,0,0,0,19.246,48.1589,1.8472,28.9129,10,
103,1,3,2,133,1,197.6056,138.8715,165.6013,2,3,1,2,1,0,0,138.8715,141.8395,1.3542,2.968,40,
103,1,3,2,134,1,167.5071,256.385,287.6698,3,2,1,1,0,0,1,167.5071,172.0912,1.4444,4.5841,30,
103,1,3,2,135,1,75.2679,196.8753,288.875,2,3,1,2,1,0,0,196.8753,200.3628,1.6388,3.4875,30,
103,1,3,2,136,1,197.5604,348.6066,259.6442,3,1,2,3,1,0,0,259.6442,230.4497,0.76389,-29.1945,10,
103,1,3,2,137,0,168.4379,109.9343,348.8497,0,0,0,3,0,0,0,348.8497,250.3521,2.4582,-98.4975,0,
103,1,3,2,138,0,198.6208,258.0684,348.9148,0,0,0,2,0,0,0,258.0684,246.0362,2.3815,-12.0322,20,
103,1,3,2,139,1,345.3642,288.7561,229.1559,1,2,3,1,1,0,0,345.3642,345.6984,1.9161,0.3342,40,
103,1,3,2,140,1,229.1626,289.9769,348.2488,3,2,1,1,0,0,1,229.1626,239.6417,1.2986,10.4791,30,
103,1,3,2,141,1,196.0322,256.693,137.8706,1,3,2,1,1,0,0,196.0322,178.5112,1.6735,-17.521,20,
103,1,3,2,142,1,137.2949,199.3049,318.3042,3,2,1,3,1,0,0,318.3042,338.923,1.2361,20.6188,20,
103,1,3,2,143,1,319.5075,166.5917,77.9854,3,2,1,3,1,0,0,77.9854,59.1601,1.7985,-18.8253,20,
103,1,3,2,144,1,198.7463,49.2093,255.8344,2,3,1,2,1,0,0,49.2093,56.4348,2.1114,7.2255,30,
103,1,3,2,145,0,47.6562,169.7795,195.3334,0,0,0,3,0,0,0,195.3334,200.5419,3.8887,5.2085,30,
103,1,3,2,146,1,285.7627,255.7778,345.4478,3,1,2,3,1,0,0,345.4478,188.1735,0.86815,-157.2743,0,
103,1,3,2,147,0,346.1715,287.3235,18.0969,0,0,0,1,0,0,0,346.1715,159.3711,1.5138,173.1995,0,
103,1,3,2,148,0,286.6012,47.4647,76.1083,0,0,0,1,0,0,0,286.6012,284.7069,2.4719,-1.8943,40,
103,1,3,2,149,1,169.9519,135.1685,257.1213,3,2,1,3,1,0,0,257.1213,224.5788,1.4233,-32.5425,0,
103,1,3,2,150,1,135.5186,76.8876,286.3143,1,3,2,1,1,0,0,135.5186,140.899,1.2565,5.3804,30,
103,1,3,2,151,1,136.9241,15.8132,228.9838,3,2,1,3,1,0,0,228.9838,246.3798,2.1943,17.396,20,
103,1,3,2,152,1,256.3422,16.2905,47.405,2,1,3,1,0,1,0,256.3422,NaN,100000,999,0,
103,1,3,2,153,1,46.019,79.9667,135.4681,3,2,1,3,1,0,0,135.4681,129.5164,1.8888,-5.9518,30,
103,1,3,2,154,0,139.2935,49.6024,78.7542,0,0,0,3,0,0,0,78.7542,99.7701,1.6804,21.0159,10,
103,1,3,2,155,0,287.1087,317.0566,79.7957,0,0,0,1,0,0,0,287.1087,281.1702,2.1943,-5.9385,30,
103,1,3,2,156,1,108.3266,79.8213,348.3558,3,1,2,2,0,0,1,79.8213,40.7084,1.8472,-39.1129,0,
103,1,3,2,157,1,75.3655,287.9028,346.4351,3,1,2,3,1,0,0,346.4351,340.3295,1.3129,-6.1056,30,
103,1,3,2,158,1,198.7184,106.9255,16.2575,3,2,1,3,1,0,0,16.2575,17.5831,0.95138,1.3256,40,
103,1,3,2,159,1,19.4394,316.2826,169.834,1,2,3,3,0,0,1,169.834,12.8175,1.243,-157.0165,0,
103,1,3,2,160,1,198.7854,49.4316,347.3611,1,2,3,2,0,1,0,49.4316,NaN,100000,999,0,
103,1,3,2,161,0,256.8834,287.5216,198.8175,0,0,0,3,0,0,0,198.8175,239.9935,1.8957,41.176,0,
103,1,3,2,162,0,15.4179,197.5633,289.1643,0,0,0,2,0,0,0,197.5633,191.7222,2.4583,-5.8411,30,
103,1,3,2,163,0,225.9814,285.6068,317.7185,0,0,0,3,0,0,0,317.7185,322.3394,1.5273,4.6209,30,
103,1,3,2,164,1,226.822,15.8574,348.9768,2,3,1,2,1,0,0,15.8574,45.4357,1.3676,29.5783,10,
103,1,3,2,165,0,108.4765,49.8046,227.7316,0,0,0,1,0,0,0,108.4765,105.3478,1.3819,-3.1288,30,
103,1,3,2,166,1,139.2915,349.5471,169.8083,2,3,1,2,1,0,0,349.5471,163.3988,3.8058,173.8518,0,
103,1,3,2,167,1,317.665,166.6339,78.011,1,2,3,1,1,0,0,317.665,321.4303,2.2503,3.7653,30,
103,1,3,2,168,0,45.8568,286.6499,19.8324,0,0,0,1,0,0,0,45.8568,48.1944,1.6041,2.3376,40,
103,1,3,2,169,0,106.7704,226.3312,346.4575,0,0,0,1,0,0,0,106.7704,146.3843,2.4235,39.6139,0,
103,1,3,2,170,1,49.4181,287.1224,18.0363,2,3,1,2,1,0,0,287.1224,262.1879,1.8749,-24.9345,10,
103,1,3,2,171,0,17.7364,197.7674,108.1529,0,0,0,2,0,0,0,197.7674,210.0252,1.8125,12.2578,20,
103,1,3,2,172,0,345.4081,166.3724,229.3376,0,0,0,2,0,0,0,166.3724,162.9621,1.5554,-3.4103,30,
103,1,3,2,173,0,198.8857,346.9197,288.5578,0,0,0,1,0,0,0,198.8857,180.7522,1.1249,-18.1335,20,
103,1,3,2,174,0,285.827,225.908,348.4572,0,0,0,1,0,0,0,285.827,180,1.2083,-105.827,0,
103,1,3,2,175,0,165.0106,319.7555,18.8315,0,0,0,3,0,0,0,18.8315,208.6344,2.368,-170.1971,0,
103,1,3,2,176,0,45.903,107.8665,75.8178,0,0,0,2,0,0,0,107.8665,123.3348,1.5971,15.4683,20,
103,1,3,2,177,0,46.1465,285.9111,225.8318,0,0,0,3,0,0,0,225.8318,224.7614,1.3958,-1.0703,40,
103,1,3,2,178,0,108.3036,169.7062,19.8785,0,0,0,2,0,0,0,169.7062,157.7601,1.9374,-11.946,30,
103,1,3,2,179,1,259.2268,109.3944,138.7309,3,2,1,2,0,1,0,109.3944,NaN,100000,999,0,
103,1,3,2,180,1,17.2394,78.5482,169.7217,1,2,3,1,1,0,0,17.2394,17.302,1.8681,0.06268,40,
103,1,4,2,181,1,228.2734,195.1307,18.9289,2,3,1,2,1,0,0,195.1307,174.0076,1.2779,-21.1231,10,
103,1,4,2,182,0,109.9695,258.0224,229.7245,0,0,0,3,0,0,0,229.7245,220.9722,1.6249,-8.7523,30,
103,1,4,2,183,1,285.552,166.0832,199.0551,1,2,3,1,1,0,0,285.552,264.5864,2.243,-20.9656,20,
103,1,4,2,184,0,108.221,255.3397,226.0396,0,0,0,3,0,0,0,226.0396,220.9275,2.1874,-5.1121,30,
103,1,4,2,185,1,319.6343,15.0415,79.1231,2,3,1,2,1,0,0,15.0415,159.1828,1.6874,144.1413,0,
103,1,4,2,186,1,289.6135,166.6016,349.2877,2,3,1,2,1,0,0,166.6016,150.0926,1.4303,-16.509,20,
103,1,4,2,187,1,135.0642,315.9331,77.4262,1,2,3,1,1,0,0,135.0642,126.881,1.5624,-8.1832,30,
103,1,4,2,188,1,137.8393,227.1325,45.3812,1,2,3,1,1,0,0,137.8393,129.8051,1.6458,-8.0342,30,
103,1,4,2,189,0,169.7982,15.4454,288.9887,0,0,0,1,0,0,0,169.7982,167.5026,1.8051,-2.2956,40,
103,1,4,2,190,0,137.5494,76.9126,259.5274,0,0,0,2,0,0,0,76.9126,71.8866,2.2572,-5.026,30,
103,1,4,2,191,1,345.9222,75.2283,289.4252,1,3,2,1,1,0,0,345.9222,172.5573,0.95176,-173.3649,0,
103,1,4,2,192,0,48.1135,105.3177,286.8675,0,0,0,2,0,0,0,105.3177,70.2685,2.2221,-35.0492,0,
103,1,4,2,193,1,76.7084,347.7434,17.3027,1,2,3,2,0,1,0,347.7434,NaN,100000,999,0,
103,1,4,2,194,1,257.1951,105.7453,195.1414,1,3,2,2,0,0,1,105.7453,133.7487,1.4791,28.0034,10,
103,1,4,2,195,1,317.404,105.3326,79.4889,1,3,2,1,1,0,0,317.404,295.4638,1.7982,-21.9403,10,
103,1,4,2,196,0,76.7007,169.5946,107.2813,0,0,0,1,0,0,0,76.7007,257.76,1.9446,-178.9407,0,
103,1,4,2,197,1,347.9954,168.0078,108.2471,3,1,2,2,0,0,1,168.0078,132.317,1.2222,-35.6909,0,
103,1,4,2,198,0,136.8788,169.3173,286.4599,0,0,0,1,0,0,0,136.8788,108.1485,1.6113,-28.7303,10,
103,1,4,2,199,0,196.4215,17.1766,229.5188,0,0,0,3,0,0,0,229.5188,221.0102,0.99303,-8.5086,30,
103,1,4,2,200,1,287.6707,136.834,196.8197,1,3,2,1,1,0,0,287.6707,298.9246,1.4791,11.2539,30,
103,1,4,2,201,1,229.9196,49.8989,16.2508,1,2,3,1,1,0,0,229.9196,270.4474,2.4305,40.5278,0,
103,1,4,2,202,1,195.0178,169.0762,228.1921,3,2,1,3,1,0,0,228.1921,216.812,1.5069,-11.3801,30,
103,1,4,2,203,0,257.3316,289.7577,49.825,0,0,0,3,0,0,0,49.825,41.9969,3.0693,-7.8281,30,
103,1,4,2,204,1,259.0554,288.5523,139.8512,2,1,3,3,0,0,1,139.8512,134.7703,1.2017,-5.0809,30,
103,1,4,2,205,1,286.2257,165.3206,76.3157,1,3,2,1,1,0,0,286.2257,280.3436,1.6944,-5.8821,30,
103,1,4,2,206,1,315.0382,228.0546,17.0404,1,2,3,1,1,0,0,315.0382,302.8174,2.2222,-12.2208,20,
103,1,4,2,207,0,108.5521,168.4433,16.6047,0,0,0,2,0,0,0,168.4433,192.9855,2.4444,24.5422,10,
103,1,4,2,208,1,75.8955,138.1723,319.8148,3,1,2,3,1,0,0,319.8148,322.3002,1.5347,2.4854,40,
103,1,4,2,209,1,169.5658,108.4126,319.7337,1,2,3,1,1,0,0,169.5658,162.1654,1.4305,-7.4004,30,
103,1,4,2,210,0,315.4142,19.752,75.0819,0,0,0,2,0,0,0,19.752,351.1502,1.3055,-28.6017,10,
103,1,4,2,211,1,317.3943,106.5406,48.7222,3,2,1,1,0,0,1,317.3943,134.5612,1.1249,177.1669,0,
103,1,4,2,212,1,286.3409,257.7512,45.9026,3,2,1,3,1,0,0,45.9026,39.043,2.736,-6.8596,30,
103,1,4,2,213,0,77.0324,49.759,139.5599,0,0,0,1,0,0,0,77.0324,53.4961,1.5767,-23.5362,10,
103,1,4,2,214,0,318.0144,166.8875,138.3247,0,0,0,3,0,0,0,138.3247,136.2816,1.3402,-2.043,40,
103,1,4,2,215,0,198.4041,109.616,45.7642,0,0,0,1,0,0,0,198.4041,173.8904,1.1596,-24.5137,10,
103,1,4,2,216,0,45.5504,196.3961,258.8382,0,0,0,3,0,0,0,258.8382,226.0018,0.95833,-32.8364,0,
103,1,4,2,217,0,226.2324,48.3037,346.647,0,0,0,2,0,0,0,48.3037,50.7696,1.625,2.4659,40,
103,1,4,2,218,1,49.0048,137.7749,107.0944,2,1,3,1,0,1,0,49.0048,NaN,100000,999,0,
103,1,4,2,219,1,167.4934,18.693,255.0638,2,3,1,3,0,1,0,255.0638,NaN,100000,999,0,
103,1,4,2,220,0,288.6709,195.521,228.9629,0,0,0,1,0,0,0,288.6709,277.8438,2.2985,-10.8271,30,
103,1,4,2,221,1,165.2439,196.5692,108.2082,3,1,2,3,1,0,0,108.2082,133.297,1.8055,25.0888,10,
103,1,4,2,222,1,48.3979,197.8389,288.2589,3,2,1,2,0,1,0,197.8389,NaN,100000,999,0,
103,1,4,2,223,1,109.8933,45.5568,136.9804,1,2,3,1,1,0,0,109.8933,91.55,1.5767,-18.3433,20,
103,1,4,2,224,0,78.9946,289.6512,345.0236,0,0,0,2,0,0,0,289.6512,56.6325,1.3402,126.9813,0,
103,1,4,2,225,0,165.1751,197.0274,76.2483,0,0,0,2,0,0,0,197.0274,78.6826,1.986,-118.3448,0,
103,1,4,2,226,1,138.6715,347.4974,169.7165,1,3,2,1,1,0,0,138.6715,73.9162,1.458,-64.7554,0,
103,1,4,2,227,1,167.6721,77.1758,345.7885,1,2,3,2,0,1,0,77.1758,NaN,100000,999,0,
103,1,4,2,228,1,79.4084,198.6705,227.0322,3,2,1,1,0,0,1,79.4084,69.0719,1.2985,-10.3365,30,
103,1,4,2,229,1,256.2999,78.9343,137.5579,1,3,2,1,1,0,0,256.2999,257.2119,1.8888,0.912,40,
103,1,4,2,230,0,258.2465,78.8143,167.8784,0,0,0,2,0,0,0,78.8143,73.2599,1.6944,-5.5543,30,
103,1,4,2,231,1,315.1631,197.1487,45.1863,3,1,2,1,0,1,0,315.1631,NaN,100000,999,0,
103,1,4,2,232,1,166.0708,105.0193,259.4029,3,2,1,1,0,0,1,166.0708,162.6215,1.6387,-3.4493,30,
103,1,4,2,233,1,285.4293,17.6559,49.4428,2,1,3,2,1,0,0,17.6559,169.5031,1.3749,151.8472,0,
103,1,4,2,234,0,137.0614,166.811,48.907,0,0,0,2,0,0,0,166.811,158.5352,1.2639,-8.2758,30,
103,1,4,2,235,0,258.397,19.884,195.6273,0,0,0,1,0,0,0,258.397,248.9866,1.7709,-9.4105,30,
103,1,4,2,236,0,167.6627,229.6285,109.4954,0,0,0,2,0,0,0,229.6285,230.3917,2.1041,0.76318,40,
103,1,4,2,237,1,289.3028,79.6955,258.401,3,1,2,3,1,0,0,258.401,98.737,1.4096,-159.664,0,
103,1,4,2,238,0,167.6572,228.169,345.0705,0,0,0,1,0,0,0,167.6572,170.0837,3.0484,2.4264,40,
103,1,4,2,239,0,78.7617,259.4745,169.2092,0,0,0,1,0,0,0,78.7617,77.6101,1.6319,-1.1516,40,
103,1,4,2,240,0,138.6643,105.5838,18.7302,0,0,0,2,0,0,0,105.5838,117.2476,1.0836,11.6638,30,
103,1,5,2,241,0,167.0559,316.1824,255.9753,0,0,0,2,0,0,0,316.1824,305.449,1.7009,-10.7335,30,
103,1,5,2,242,1,225.5146,49.9844,196.7948,2,3,1,2,1,0,0,49.9844,54.6706,2.0346,4.6862,30,
103,1,5,2,243,1,77.9323,198.8902,258.6385,3,2,1,2,0,1,0,198.8902,NaN,100000,999,0,
103,1,5,2,244,1,228.7567,317.6118,347.4522,2,1,3,2,1,0,0,317.6118,345.765,1.6668,28.1532,10,
103,1,5,2,245,1,16.2011,225.3515,286.5002,1,2,3,1,1,0,0,16.2011,25.6623,1.8819,9.4612,30,
103,1,5,2,246,1,166.4226,49.1528,229.0918,3,1,2,3,1,0,0,229.0918,217.3824,1.7916,-11.7094,30,
103,1,5,2,247,0,48.2004,108.9378,136.35,0,0,0,2,0,0,0,108.9378,324.478,2.1733,-144.4598,0,
103,1,5,2,248,1,135.4472,258.6564,229.5193,1,2,3,1,1,0,0,135.4472,141.2913,1.611,5.8441,30,
103,1,5,2,249,0,139.9175,46.2417,348.0318,0,0,0,1,0,0,0,139.9175,139.6513,1.3958,-0.26619,40,
103,1,5,2,250,0,287.9163,196.3027,345.4241,0,0,0,2,0,0,0,196.3027,351.2089,2.1388,154.9062,0,
103,1,5,2,251,1,199.6498,106.4098,345.8444,2,3,1,2,1,0,0,106.4098,133.4212,1.1874,27.0114,10,
103,1,5,2,252,1,169.1344,316.5048,346.9194,2,1,3,2,1,0,0,316.5048,4.5905,1.9514,48.0857,0,
103,1,5,2,253,1,195.6162,138.6794,225.7831,3,2,1,3,1,0,0,225.7831,210.8363,2.0276,-14.9468,20,
103,1,5,2,254,1,105.6737,316.6189,199.7527,2,3,1,2,1,0,0,316.6189,338.6357,1.6666,22.0167,10,
103,1,5,2,255,1,319.0859,286.8877,49.863,2,1,3,2,1,0,0,286.8877,334.9796,1.993,48.0919,0,
103,1,5,2,256,0,169.9745,197.4529,47.5173,0,0,0,3,0,0,0,47.5173,22.7114,2.4027,-24.8059,10,
103,1,5,2,257,1,108.6293,256.6972,346.3634,2,3,1,1,0,0,1,108.6293,118.2595,1.7358,9.6301,30,
103,1,5,2,258,1,315.1454,285.681,18.4728,1,3,2,1,1,0,0,315.1454,313.0126,2.4162,-2.1329,40,
103,1,5,2,259,0,345.3735,195.9123,165.1584,0,0,0,2,0,0,0,195.9123,201.2258,2.3124,5.3136,30,
103,1,5,2,260,1,48.6624,345.8147,229.6054,2,1,3,2,1,0,0,345.8147,338.8443,1.646,-6.9704,30,
103,1,5,2,261,0,75.0066,49.9063,17.851,0,0,0,3,0,0,0,17.851,38.2728,1.6944,20.4218,20,
103,1,5,2,262,1,108.7804,256.4412,78.0309,2,3,1,3,0,1,0,78.0309,NaN,100000,999,0,
103,1,5,2,263,0,136.1479,165.0346,318.8332,0,0,0,1,0,0,0,136.1479,149.6713,1.6458,13.5233,20,
103,1,5,2,264,1,197.5948,19.1099,348.1851,3,1,2,1,0,1,0,197.5948,NaN,100000,999,0,
103,1,5,2,265,1,107.0495,196.8559,226.1343,3,2,1,1,0,0,1,107.0495,123.0169,1.833,15.9675,20,
103,1,5,2,266,0,168.9651,139.0778,48.7606,0,0,0,1,0,0,0,168.9651,151.8896,1.2987,-17.0755,20,
103,1,5,2,267,1,317.7818,139.8454,168.4456,1,3,2,1,1,0,0,317.7818,320.8585,2.1804,3.0767,30,
103,1,5,2,268,0,345.0331,197.9865,288.2959,0,0,0,2,0,0,0,197.9865,222.4292,1.7568,24.4427,10,
103,1,5,2,269,0,168.9406,229.348,288.9377,0,0,0,3,0,0,0,288.9377,301.4395,2.1181,12.5018,20,
103,1,5,2,270,1,165.9414,106.621,288.5802,2,1,3,2,1,0,0,106.621,77.7812,1.1944,-28.8398,10,
103,1,5,2,271,1,168.5983,256.5138,47.2951,3,2,1,3,1,0,0,47.2951,145.371,1.6045,98.0759,0,
103,1,5,2,272,1,17.1214,319.5277,287.0866,3,1,2,2,0,0,1,319.5277,322.6623,2.1596,3.1347,30,
103,1,5,2,273,0,285.9294,16.4572,317.3083,0,0,0,2,0,0,0,16.4572,43.553,2.1041,27.0957,10,
103,1,5,2,274,1,135.8698,195.5877,105.8702,2,3,1,1,0,0,1,135.8698,124.5615,1.5347,-11.3082,30,
103,1,5,2,275,1,107.3868,259.4494,195.3254,1,2,3,3,0,0,1,195.3254,191.4055,1.7152,-3.9199,30,
103,1,5,2,276,1,136.9238,347.8132,168.1692,2,3,1,3,0,1,0,168.1692,NaN,100000,999,0,
103,1,5,2,277,1,227.7422,136.0392,108.9229,1,2,3,1,1,0,0,227.7422,226.1008,1.6386,-1.6414,40,
103,1,5,2,278,1,138.9978,348.9808,289.7704,3,2,1,3,1,0,0,289.7704,311.5597,1.9513,21.7893,10,
103,1,5,2,279,0,136.8617,167.0285,17.1941,0,0,0,2,0,0,0,167.0285,149.3131,2.7426,-17.7154,20,
103,1,5,2,280,0,318.5183,259.5948,138.3004,0,0,0,3,0,0,0,138.3004,139.6797,2.3959,1.3794,40,
103,1,5,2,281,1,225.1476,257.3617,288.3922,3,1,2,3,1,0,0,288.3922,287.4128,1.8263,-0.97943,40,
103,1,5,2,282,0,19.5042,105.6908,48.9704,0,0,0,2,0,0,0,105.6908,133.2647,1.4653,27.5739,10,
103,1,5,2,283,1,45.9366,77.7282,136.2756,1,3,2,1,1,0,0,45.9366,66.5104,1.8955,20.5738,20,
103,1,5,2,284,1,169.4306,45.747,257.1734,1,3,2,1,1,0,0,169.4306,167.6838,1.611,-1.7469,40,
103,1,5,2,285,0,287.5569,16.0754,106.7305,0,0,0,2,0,0,0,16.0754,5.3541,1.8819,-10.7214,30,
103,1,5,2,286,1,287.3987,75.9933,316.1951,2,3,1,3,0,1,0,316.1951,NaN,100000,999,0,
103,1,5,2,287,1,259.6331,285.4745,76.8771,2,3,1,1,0,0,1,259.6331,278.6653,1.6593,19.0322,20,
103,1,5,2,288,0,197.3872,316.5277,47.5817,0,0,0,3,0,0,0,47.5817,32.0895,1.743,-15.4921,20,
103,1,5,2,289,0,319.7979,108.851,79.3751,0,0,0,3,0,0,0,79.3751,114.7206,1.3263,35.3455,0,
103,1,5,2,290,1,16.3184,229.58,348.0752,3,2,1,3,1,0,0,348.0752,131.8633,1.4305,143.7882,0,
103,1,5,2,291,1,347.7596,17.0191,198.7506,2,1,3,1,0,1,0,347.7596,NaN,100000,999,0,
103,1,5,2,292,1,229.2868,75.9901,315.778,2,1,3,2,1,0,0,75.9901,59.7363,1.0069,-16.2538,20,
103,1,5,2,293,0,76.7418,17.4316,258.3976,0,0,0,3,0,0,0,258.3976,327.7389,0.81248,69.3413,0,
103,1,5,2,294,0,139.9652,345.4822,196.5657,0,0,0,3,0,0,0,196.5657,202.7128,1.7291,6.1471,30,
103,1,5,2,295,1,258.5304,135.1951,198.0815,2,1,3,1,0,1,0,258.5304,NaN,100000,999,0,
103,1,5,2,296,0,79.9196,45.2887,106.9827,0,0,0,3,0,0,0,106.9827,106.5212,1.736,-0.46155,40,
103,1,5,2,297,1,139.4131,317.1872,79.1748,2,1,3,3,0,0,1,79.1748,119.3534,1.5554,40.1786,0,
103,1,5,2,298,0,169.0204,227.8133,108.7544,0,0,0,1,0,0,0,169.0204,174.1729,1.7568,5.1525,30,
103,1,5,2,299,1,15.6194,315.9312,168.2325,1,2,3,1,1,0,0,15.6194,174.2482,0.77775,158.6288,0,
103,1,5,2,300,1,108.8763,47.9592,16.8809,1,2,3,3,0,0,1,16.8809,21.0434,2.3194,4.1625,30,
103,1,6,2,301,0,46.9234,135.2004,227.9147,0,0,0,1,0,0,0,46.9234,66.1254,1.5069,19.202,20,
103,1,6,2,302,0,195.7893,347.5433,258.0165,0,0,0,3,0,0,0,258.0165,251.1088,1.4235,-6.9077,30,
103,1,6,2,303,0,16.8971,197.9642,135.3425,0,0,0,2,0,0,0,197.9642,202.1302,1.6878,4.166,30,
103,1,6,2,304,0,347.1749,287.7893,258.1939,0,0,0,1,0,0,0,347.1749,339.8133,2.2011,-7.3617,30,
103,1,6,2,305,1,16.4771,196.8306,76.7452,2,3,1,2,1,0,0,196.8306,204.8762,1.4028,8.0456,30,
103,1,6,2,306,1,317.1352,167.8886,349.4976,3,1,2,2,0,0,1,167.8886,182.1607,1.2916,14.2721,20,
103,1,6,2,307,0,349.4673,318.2654,15.2014,0,0,0,1,0,0,0,349.4673,354.531,1.5694,5.0638,30,
103,1,6,2,308,1,348.6462,168.243,137.3733,2,1,3,2,1,0,0,168.243,189.8022,0.88181,21.5592,10,
103,1,6,2,309,1,136.4477,45.0925,348.5075,2,1,3,2,1,0,0,45.0925,51.1341,1.3331,6.0416,30,
103,1,6,2,310,1,315.7111,256.8779,168.9678,2,1,3,2,1,0,0,256.8779,214.9442,2.6943,-41.9337,0,
103,1,6,2,311,1,169.758,196.7334,286.4866,1,3,2,1,1,0,0,169.758,356.6132,1.5903,-173.1448,0,
103,1,6,2,312,1,259.5246,346.4085,138.0694,1,2,3,2,0,1,0,346.4085,NaN,100000,999,0,
103,1,6,2,313,0,225.0449,48.5914,257.2471,0,0,0,1,0,0,0,225.0449,229.0465,1.5763,4.0016,30,
103,1,6,2,314,1,109.9422,346.2555,196.5774,1,3,2,1,1,0,0,109.9422,193.7048,1.3888,83.7626,0,
103,1,6,2,315,0,46.3042,227.4654,109.2792,0,0,0,3,0,0,0,109.2792,133.492,1.6387,24.2128,10,
103,1,6,2,316,0,257.3016,227.5784,76.36,0,0,0,3,0,0,0,76.36,141.5125,1.3958,65.1525,0,
103,1,6,2,317,1,257.7944,16.1293,135.5226,1,2,3,2,0,1,0,16.1293,NaN,100000,999,0,
103,1,6,2,318,1,19.299,47.9853,288.2738,2,1,3,1,0,1,0,19.299,NaN,100000,999,0,
103,1,6,2,319,1,195.14,255.3342,79.6353,3,1,2,3,1,0,0,79.6353,78.5686,1.4582,-1.0668,40,
103,1,6,2,320,1,15.1824,255.3184,106.6144,1,3,2,2,0,0,1,255.3184,246.8013,1.7844,-8.5171,30,
103,1,6,2,321,0,107.9897,225.1151,19.4971,0,0,0,1,0,0,0,107.9897,97.4927,1.5625,-10.497,30,
103,1,6,2,322,0,197.2525,47.8892,285.3742,0,0,0,2,0,0,0,47.8892,62.6391,1.6249,14.7499,20,
103,1,6,2,323,1,17.2564,316.2498,139.7772,2,3,1,2,1,0,0,316.2498,316.7108,1.757,0.46098,40,
103,1,6,2,324,0,17.2228,288.1376,347.6732,0,0,0,3,0,0,0,347.6732,133.4857,2.2086,145.8125,0,
103,1,6,2,325,1,317.5363,165.5686,257.4522,3,1,2,3,1,0,0,257.4522,121.5885,1.6666,-135.8637,0,
103,1,6,2,326,1,47.5541,317.8229,199.9686,2,1,3,2,1,0,0,317.8229,328.1643,1.8815,10.3414,30,
103,1,6,2,327,0,106.6799,75.7242,346.2244,0,0,0,2,0,0,0,75.7242,154.2117,1.4096,78.4875,0,
103,1,6,2,328,1,169.2888,79.31,346.5665,1,3,2,3,0,1,0,346.5665,NaN,100000,999,0,
103,1,6,2,329,1,319.3634,106.4291,198.2842,3,1,2,3,1,0,0,198.2842,216.6239,1.8473,18.3397,20,
103,1,6,2,330,1,349.5954,197.0535,78.6618,3,1,2,1,0,1,0,349.5954,NaN,100000,999,0,
103,1,6,2,331,1,15.0076,347.81,287.7324,3,1,2,3,1,0,0,287.7324,302.7053,2.5763,14.9729,20,
103,1,6,2,332,1,285.9061,227.1312,255.4908,1,3,2,1,1,0,0,285.9061,294.4857,1.5208,8.5796,30,
103,1,6,2,333,1,345.6878,197.1204,228.8228,3,1,2,3,1,0,0,228.8228,236.4553,1.3888,7.6325,30,
103,1,6,2,334,1,165.8893,259.9342,75.085,2,1,3,1,0,1,0,165.8893,NaN,100000,999,0,
103,1,6,2,335,1,18.1545,289.4599,318.367,1,2,3,1,1,0,0,18.1545,77.5981,2.1735,59.4436,0,
103,1,6,2,336,1,227.6908,319.5507,166.7535,1,3,2,3,0,1,0,166.7535,NaN,100000,999,0,
103,1,6,2,337,0,256.578,109.9701,229.9195,0,0,0,1,0,0,0,256.578,233.3475,1.6388,-23.2305,10,
103,1,6,2,338,1,258.626,319.1718,285.0945,3,2,1,1,0,0,1,258.626,266.0209,2.0902,7.3948,30,
103,1,6,2,339,0,289.6574,136.8901,18.0884,0,0,0,1,0,0,0,289.6574,278.5689,1.5555,-11.0885,30,
103,1,6,2,340,1,107.9087,195.499,225.833,3,1,2,3,1,0,0,225.833,224.806,2.5972,-1.027,40,
103,1,6,2,341,0,19.4256,46.0482,167.4018,0,0,0,2,0,0,0,46.0482,49.0322,1.8263,2.9839,40,
103,1,6,2,342,1,78.6958,106.2681,18.5963,1,2,3,2,0,1,0,106.2681,NaN,100000,999,0,
103,1,6,2,343,0,258.1371,347.3141,105.6472,0,0,0,3,0,0,0,105.6472,128.3717,2.0138,22.7245,10,
103,1,6,2,344,0,229.993,137.5676,346.9392,0,0,0,1,0,0,0,229.993,259.7046,1.6736,29.7116,10,
103,1,6,2,345,1,199.8122,16.5687,48.9854,2,1,3,2,1,0,0,16.5687,62.2296,1.9582,45.661,0,
103,1,6,2,346,1,49.5963,169.9447,79.663,2,1,3,3,0,0,1,79.663,97.6335,2.8747,17.9704,20,
103,1,6,2,347,1,195.941,315.5034,346.4328,2,1,3,2,1,0,0,315.5034,340.7814,2.0554,25.278,10,
103,1,6,2,348,1,106.7758,228.1557,19.3227,1,3,2,1,1,0,0,106.7758,107.3596,1.6874,0.5838,40,
103,1,6,2,349,1,16.1481,136.7947,46.8158,3,1,2,3,1,0,0,46.8158,38.9465,1.1527,-7.8694,30,
103,1,6,2,350,0,346.4404,166.8831,225.7325,0,0,0,1,0,0,0,346.4404,355.7399,1.5694,9.2995,30,
103,1,6,2,351,1,255.7971,226.3939,18.2247,3,2,1,1,0,0,1,255.7971,240.8351,1.5139,-14.962,20,
103,1,6,2,352,0,75.5483,347.8292,256.3717,0,0,0,3,0,0,0,256.3717,240.2374,1.0069,-16.1342,20,
103,1,6,2,353,1,288.1388,77.2337,19.0555,1,3,2,1,1,0,0,288.1388,299.1339,1.5694,10.9951,30,
103,1,6,2,354,0,196.9487,15.7521,166.6685,0,0,0,3,0,0,0,166.6685,172.1212,1.611,5.4527,30,
103,1,6,2,355,0,106.9478,257.4507,79.4345,0,0,0,1,0,0,0,106.9478,117.3561,2.1739,10.4082,30,
103,1,6,2,356,1,319.31,345.6282,258.2279,3,1,2,3,1,0,0,258.2279,233.2598,1.375,-24.9681,10,
103,1,6,2,357,1,138.9567,288.2831,107.7184,2,3,1,2,1,0,0,288.2831,267.136,2.9583,-21.1471,10,
103,1,6,2,358,0,315.156,289.1379,16.3213,0,0,0,3,0,0,0,16.3213,30.1832,1.5416,13.8619,20,
103,1,6,2,359,0,258.0154,135.9201,225.4373,0,0,0,1,0,0,0,258.0154,248.7581,0.99997,-9.2573,30,
103,1,6,2,360,1,139.5235,198.8365,47.8133,2,1,3,2,1,0,0,198.8365,218.0272,1.7221,19.1907,20,
103,1,7,1,361,1,137.7436,195.0777,75.4734,2,1,3,2,1,0,0,195.0777,59.6816,7.2978,-135.3961,0,
103,1,7,1,362,1,256.7246,198.4634,348.583,1,2,3,1,1,0,0,256.7246,254.7238,1.0971,-2.0007,40,
103,1,7,1,363,1,135.1638,79.2181,258.8515,2,1,3,2,1,0,0,79.2181,74.2518,1.2569,-4.9663,30,
103,1,7,1,364,1,318.2542,229.9111,195.9692,1,2,3,2,0,1,0,229.9111,173.9749,1.9443,-55.9361,0,
103,1,7,1,365,1,108.4551,288.2361,228.1172,3,1,2,3,1,0,0,228.1172,220.2766,1.2848,-7.8406,30,
103,1,7,1,366,0,346.1287,288.3308,49.3567,0,0,0,1,0,0,0,346.1287,347.253,1.4857,1.1243,40,
103,1,7,1,367,1,228.7525,46.6696,168.1642,3,2,1,3,1,0,0,168.1642,178.3146,0.79164,10.1505,30,
103,1,7,1,368,1,226.3755,139.1398,258.9639,1,2,3,3,0,0,1,258.9639,141.3563,2.0346,-117.6076,0,
103,1,7,1,369,1,79.0965,319.6324,17.5706,3,1,2,2,0,0,1,319.6324,357.0509,2.0138,37.4186,0,
103,1,7,1,370,1,319.6235,15.2778,76.9202,2,1,3,1,0,1,0,319.6235,128.9776,1.3887,169.354,0,
103,1,7,1,371,0,319.6585,285.5445,48.2585,0,0,0,1,0,0,0,319.6585,310.4762,2.1041,-9.1823,30,
103,1,7,1,372,0,106.2626,258.2717,15.3005,0,0,0,3,0,0,0,15.3005,22.2496,1.8055,6.9491,30,
103,1,7,1,373,0,49.0672,258.9382,345.6216,0,0,0,2,0,0,0,258.9382,244.5204,1.7082,-14.4178,20,
103,1,7,1,374,1,166.1154,197.5488,18.9387,3,2,1,1,0,0,1,166.1154,152.8864,1.8472,-13.229,20,
103,1,7,1,375,0,135.6449,196.0742,226.4641,0,0,0,1,0,0,0,135.6449,142.5034,1.2916,6.8585,30,
103,1,7,1,376,1,258.7972,46.9971,227.8371,3,2,1,1,0,0,1,258.7972,235.8397,2.0485,-22.9575,10,
103,1,7,1,377,1,19.3937,136.9647,106.2132,3,1,2,3,1,0,0,106.2132,105.6077,1.5485,-0.60547,40,
103,1,7,1,378,1,198.1299,16.6345,346.5555,1,3,2,2,0,0,1,16.6345,31.2338,1.764,14.5993,20,
103,1,7,1,379,0,255.9533,317.2465,78.8433,0,0,0,2,0,0,0,317.2465,17.1988,1.5136,59.9523,0,
103,1,7,1,380,1,106.7368,288.8994,198.5417,1,3,2,3,0,1,0,198.5417,201.5326,1.3888,2.9909,40,
103,1,7,1,381,1,226.6913,289.8702,169.7739,1,3,2,1,1,0,0,226.6913,238.7588,1.1805,12.0675,20,
103,1,7,1,382,1,75.0635,45.6611,226.9403,1,3,2,1,1,0,0,75.0635,61.2929,2.0901,-13.7706,20,
103,1,7,1,383,0,195.7207,48.1759,349.0121,0,0,0,2,0,0,0,48.1759,34.3308,2.1666,-13.845,20,
103,1,7,1,384,1,135.4763,286.2294,199.6733,3,1,2,2,0,0,1,286.2294,284.3132,2.2777,-1.9161,40,
103,1,7,1,385,0,107.2227,346.6329,286.4365,0,0,0,1,0,0,0,107.2227,121.1211,1.6457,13.8983,20,
103,1,7,1,386,0,167.3073,257.9357,47.388,0,0,0,3,0,0,0,47.388,51.2853,1.5902,3.8973,30,
103,1,7,1,387,0,105.1816,45.943,347.8877,0,0,0,1,0,0,0,105.1816,132.4747,1.2222,27.293,10,
103,1,7,1,388,0,197.7527,139.9306,168.4489,0,0,0,2,0,0,0,139.9306,151.4413,1.4443,11.5107,30,
103,1,7,1,389,1,106.463,49.1621,137.8526,2,3,1,2,1,0,0,49.1621,59.1797,1.3472,10.0176,30,
103,1,7,1,390,0,18.0356,289.7875,76.6533,0,0,0,1,0,0,0,18.0356,354.2472,2.3818,-23.7884,10,
103,1,7,1,391,1,45.3576,315.0784,289.8684,3,1,2,3,1,0,0,289.8684,298.3944,1.7432,8.526,30,
103,1,7,1,392,1,78.5901,105.9445,317.1697,3,1,2,3,1,0,0,317.1697,123.0188,1.9027,165.8491,0,
103,1,7,1,393,1,319.7139,18.3713,226.9283,2,3,1,2,1,0,0,18.3713,76.1311,2.2915,57.7598,0,
103,1,7,1,394,1,196.9913,225.6865,319.7638,3,2,1,3,1,0,0,319.7638,323.6495,1.3816,3.8857,30,
103,1,7,1,395,0,75.4069,138.9374,255.872,0,0,0,1,0,0,0,75.4069,104.6886,1.3264,29.2817,10,
103,1,7,1,396,0,347.3247,229.1204,79.3594,0,0,0,3,0,0,0,79.3594,92.1134,1.3749,12.7539,20,
103,1,7,1,397,0,199.4692,169.205,48.4164,0,0,0,1,0,0,0,199.4692,190.4287,1.4791,-9.0405,30,
103,1,7,1,398,1,106.0224,15.3143,48.1119,3,1,2,3,1,0,0,48.1119,22.2907,1.0902,-25.8212,10,
103,1,7,1,399,1,347.7221,289.2307,45.2035,1,3,2,1,1,0,0,347.7221,317.5443,2.1107,-30.1778,0,
103,1,7,1,400,1,288.0459,259.8347,198.8666,1,3,2,1,1,0,0,288.0459,301.4842,1.8818,13.4383,20,
103,1,7,1,401,0,138.5923,169.9766,75.4185,0,0,0,1,0,0,0,138.5923,299.3387,2.3328,160.7464,0,
103,1,7,1,402,1,138.4918,47.2984,315.7883,3,1,2,3,1,0,0,315.7883,306.5129,0.90968,-9.2754,30,
103,1,7,1,403,1,318.6274,135.6952,168.1628,3,1,2,1,0,1,0,318.6274,132.1708,1.2777,173.5434,0,
103,1,7,1,404,1,198.2711,316.0916,345.5957,3,1,2,3,1,0,0,345.5957,12.2684,2.4096,26.6727,10,
103,1,7,1,405,1,19.5455,197.2517,168.7432,1,3,2,3,0,1,0,168.7432,151.8923,2.0138,-16.8509,20,
103,1,7,1,406,0,196.9978,48.2766,317.8342,0,0,0,3,0,0,0,317.8342,311.9622,1.375,-5.872,30,
103,1,7,1,407,1,18.4428,258.0195,106.9348,2,3,1,3,0,1,0,106.9348,123.6473,1.2778,16.7125,20,
103,1,7,1,408,0,18.089,137.9711,318.3294,0,0,0,3,0,0,0,318.3294,313.4626,1.4027,-4.8668,30,
103,1,7,1,409,0,285.4329,319.6342,15.7424,0,0,0,1,0,0,0,285.4329,291.7719,1.8332,6.339,30,
103,1,7,1,410,0,167.2618,137.6668,287.6333,0,0,0,2,0,0,0,137.6668,115.2902,1.5902,-22.3766,10,
103,1,7,1,411,1,257.6176,76.6841,136.6619,3,1,2,3,1,0,0,136.6619,127.9108,1.8058,-8.7511,30,
103,1,7,1,412,1,318.6127,255.6712,169.2655,2,3,1,2,1,0,0,255.6712,233.5931,1.7151,-22.0781,10,
103,1,7,1,413,1,195.6399,167.3218,78.713,1,3,2,1,1,0,0,195.6399,166.0663,1.611,-29.5736,10,
103,1,7,1,414,0,255.0215,348.2625,136.8484,0,0,0,2,0,0,0,348.2625,344.9464,1.882,-3.3161,30,
103,1,7,1,415,0,169.2599,195.5886,108.2863,0,0,0,3,0,0,0,108.2863,136.8115,1.5972,28.5252,10,
103,1,7,1,416,0,108.0519,256.2399,137.5898,0,0,0,1,0,0,0,108.0519,131.1451,1.2013,23.0932,10,
103,1,7,1,417,1,315.776,79.9704,137.2512,1,2,3,1,1,0,0,315.776,306.3184,1.7083,-9.4577,30,
103,1,7,1,418,1,109.5576,45.6649,285.2108,2,1,3,3,0,0,1,285.2108,132.4399,1.7013,-152.771,0,
103,1,7,1,419,0,285.9982,227.6508,348.1368,0,0,0,1,0,0,0,285.9982,301.8724,1.4308,15.8742,20,
103,1,7,1,420,1,285.1161,195.8806,349.3046,2,3,1,2,1,0,0,195.8806,187.8986,1.368,-7.9819,30,
103,1,8,1,421,1,139.1592,226.9724,75.4832,2,3,1,2,1,0,0,226.9724,217.2312,1.6598,-9.7412,30,
103,1,8,1,422,1,258.0006,19.9983,285.6459,3,1,2,3,1,0,0,285.6459,126.7124,1.6458,-158.9335,0,
103,1,8,1,423,0,347.863,79.9688,136.8148,0,0,0,2,0,0,0,79.9688,67.0518,1.8475,-12.917,20,
103,1,8,1,424,1,138.8927,289.0539,347.4898,3,2,1,3,1,0,0,347.4898,334.4515,1.9999,-13.0383,20,
103,1,8,1,425,0,139.122,45.8653,229.3182,0,0,0,3,0,0,0,229.3182,194.7696,1.5763,-34.5487,0,
103,1,8,1,426,1,138.0311,78.9619,49.1808,2,1,3,2,1,0,0,78.9619,59.9118,1.1734,-19.0501,20,
103,1,8,1,427,0,46.1867,195.6983,256.1037,0,0,0,2,0,0,0,195.6983,193.0722,2.6596,-2.6261,40,
103,1,8,1,428,1,346.4768,289.5354,227.4644,3,2,1,3,1,0,0,227.4644,224.5277,1.1736,-2.9367,40,
103,1,8,1,429,1,47.187,79.2999,15.0445,1,3,2,1,1,0,0,47.187,43.089,1.9027,-4.0979,30,
103,1,8,1,430,0,79.2645,348.4328,109.7906,0,0,0,2,0,0,0,348.4328,357.3807,1.6458,8.9479,30,
103,1,8,1,431,1,166.9384,345.2837,198.4479,3,2,1,3,1,0,0,198.4479,192.3361,2.0555,-6.1118,30,
103,1,8,1,432,0,46.1005,196.179,169.0506,0,0,0,3,0,0,0,169.0506,175.8543,1.7916,6.8037,30,
103,1,8,1,433,0,285.1488,259.3335,319.4721,0,0,0,2,0,0,0,259.3335,302.7069,2.3677,43.3734,0,
103,1,8,1,434,0,315.0558,256.1726,168.5349,0,0,0,1,0,0,0,315.0558,284.6133,1.5141,-30.4425,0,
103,1,8,1,435,1,138.3282,106.1507,49.0244,2,3,1,2,1,0,0,106.1507,133.786,1.5136,27.6353,10,
103,1,8,1,436,0,167.1549,138.8245,349.9823,0,0,0,3,0,0,0,349.9823,339.5649,2.736,-10.4174,30,
103,1,8,1,437,0,107.9765,77.5306,228.882,0,0,0,2,0,0,0,77.5306,81.9196,1.7014,4.389,30,
103,1,8,1,438,1,165.7078,228.0405,49.6531,3,2,1,1,0,0,1,165.7078,137.649,0.97222,-28.0588,10,
103,1,8,1,439,1,348.1345,49.685,316.5997,2,1,3,3,0,0,1,316.5997,322.501,1.361,5.9013,30,
103,1,8,1,440,1,75.7592,348.6651,45.1985,2,1,3,2,1,0,0,348.6651,34.6891,2.1041,46.024,0,
103,1,8,1,441,1,166.6833,319.4168,46.6683,3,2,1,3,1,0,0,46.6683,33.6546,1.5832,-13.0137,20,
103,1,8,1,442,1,78.6986,197.224,109.252,1,2,3,2,0,1,0,197.224,163.9031,2.3678,-33.3209,0,
103,1,8,1,443,1,227.4811,166.4383,105.9151,1,3,2,1,1,0,0,227.4811,232.4616,1.5208,4.9806,30,
103,1,8,1,444,0,226.7599,195.5008,288.965,0,0,0,1,0,0,0,226.7599,198.6009,1.7846,-28.159,10,
103,1,8,1,445,1,228.4323,319.7786,106.5395,1,2,3,1,1,0,0,228.4323,233.725,1.6249,5.2927,30,
103,1,8,1,446,0,79.7326,317.4622,348.7411,0,0,0,1,0,0,0,79.7326,69.7182,1.0971,-10.0144,30,
103,1,8,1,447,0,45.9115,197.797,18.1324,0,0,0,3,0,0,0,18.1324,26.25,1.6319,8.1176,30,
103,1,8,1,448,1,18.6621,168.1551,287.341,3,2,1,3,1,0,0,287.341,321.3835,2.1319,34.0425,0,
103,1,8,1,449,1,136.0884,285.0426,346.5031,3,1,2,3,1,0,0,346.5031,156.0879,1.8471,169.5848,0,
103,1,8,1,450,0,315.1533,349.0435,225.2357,0,0,0,2,0,0,0,349.0435,259.1168,1.8193,-89.9266,0,
103,1,8,1,451,1,138.6936,315.0693,168.3956,2,3,1,3,0,1,0,168.3956,150.2994,1.7499,-18.0962,20,
103,1,8,1,452,1,46.0342,105.1868,78.3168,3,2,1,3,1,0,0,78.3168,72.9034,1.8885,-5.4134,30,
103,1,8,1,453,0,165.0947,45.9217,15.1337,0,0,0,2,0,0,0,45.9217,63.5493,1.2294,17.6276,20,
103,1,8,1,454,0,348.5217,318.8731,289.1133,0,0,0,3,0,0,0,289.1133,310.4463,1.8264,21.333,10,
103,1,8,1,455,1,139.6704,47.9709,317.9655,2,1,3,2,1,0,0,47.9709,49.9392,1.5901,1.9684,40,
103,1,8,1,456,1,286.0016,45.0729,168.8158,2,3,1,2,1,0,0,45.0729,41.5988,1.4168,-3.4741,30,
103,1,8,1,457,1,195.2941,256.1198,15.8399,3,1,2,3,1,0,0,15.8399,23.0592,1.493,7.2193,30,
103,1,8,1,458,1,138.5184,169.1855,258.6365,1,2,3,1,1,0,0,138.5184,140.6702,1.5138,2.1518,40,
103,1,8,1,459,1,19.902,108.5641,259.1282,3,2,1,2,0,1,0,108.5641,108.1416,1.7776,-0.42256,40,
103,1,8,1,460,1,108.5872,226.0126,318.2188,2,1,3,2,1,0,0,226.0126,219.788,1.674,-6.2245,30,
103,1,8,1,461,0,19.6597,105.4666,288.6939,0,0,0,3,0,0,0,288.6939,296.2359,1.4722,7.542,30,
103,1,8,1,462,1,109.9663,18.7877,196.3753,3,1,2,2,0,0,1,18.7877,262.3665,1.8263,-116.4211,0,
103,1,8,1,463,0,139.1878,168.7421,197.9193,0,0,0,3,0,0,0,197.9193,200.139,1.6875,2.2197,40,
103,1,8,1,464,0,136.7104,259.36,16.3401,0,0,0,3,0,0,0,16.3401,31.227,1.6531,14.8868,20,
103,1,8,1,465,1,136.4382,79.6219,316.4924,3,2,1,2,0,1,0,79.6219,69.5102,1.7499,-10.1117,30,
103,1,8,1,466,1,196.6333,136.0981,167.5911,3,1,2,3,1,0,0,167.5911,162.3587,2.0068,-5.2324,30,
103,1,8,1,467,1,226.3809,318.4812,259.4068,3,2,1,3,1,0,0,259.4068,268.3278,1.6735,8.921,30,
103,1,8,1,468,0,18.9916,169.3163,138.9898,0,0,0,2,0,0,0,169.3163,141.4475,1.1664,-27.8688,10,
103,1,8,1,469,1,15.3526,75.3001,108.3079,3,1,2,3,1,0,0,108.3079,131.3881,1.0277,23.0802,10,
103,1,8,1,470,0,46.2786,346.8916,169.9687,0,0,0,1,0,0,0,46.2786,51.9745,1.6596,5.6959,30,
103,1,8,1,471,1,345.2622,106.6171,78.9984,3,1,2,3,1,0,0,78.9984,126.1837,1.5624,47.1853,0,
103,1,8,1,472,0,348.2674,166.2214,78.7896,0,0,0,3,0,0,0,78.7896,92.2626,1.2014,13.473,20,
103,1,8,1,473,1,106.559,257.9588,76.8881,1,2,3,2,0,1,0,257.9588,249.8535,2.5693,-8.1054,30,
103,1,8,1,474,1,317.6116,229.0412,257.2379,2,1,3,3,0,0,1,257.2379,252.357,1.6596,-4.8809,30,
103,1,8,1,475,1,287.5106,197.8513,19.2574,1,3,2,1,1,0,0,287.5106,275.526,1.7916,-11.9846,30,
103,1,8,1,476,0,227.7234,199.2796,318.2134,0,0,0,1,0,0,0,227.7234,261.9945,1.6319,34.2712,0,
103,1,8,1,477,1,76.0947,286.1864,255.0432,1,3,2,3,0,1,0,255.0432,235.4128,1.5417,-19.6304,20,
103,1,8,1,478,1,317.4562,198.8708,225.7391,2,3,1,3,0,1,0,225.7391,212.571,1.0694,-13.168,20,
103,1,8,1,479,1,46.7157,195.3171,168.0624,1,3,2,2,0,0,1,195.3171,168.7767,1.4097,-26.5404,10,
103,1,8,1,480,1,285.5423,79.2688,319.5543,3,1,2,3,1,0,0,319.5543,316.0872,1.5764,-3.4671,30,
