Subject,Session,Block,Condition,Trial,whetherCued,leftStim,rightStim,midStim,remCueLoc,fogCueLoc,neutralCueLoc,probeCueLoc,probeRem,probeForget,probeNeutral,Target,Estimate,RT,Error,Points
109,1,1,1,1,1,285.3167,75.3195,349.6993,2,3,1,2,1,0,0,75.3195,98.8202,1.444,23.5007,10,
109,1,1,1,2,0,317.7602,47.7922,225.3341,0,0,0,2,0,0,0,47.7922,63.4439,1.6734,15.6517,20,
109,1,1,1,3,1,345.9818,317.6386,285.7384,3,1,2,1,0,1,0,345.9818,347.1998,1.9998,1.218,40,
109,1,1,1,4,1,15.6096,196.4513,135.3117,1,2,3,1,1,0,0,15.6096,1.4814,2.4095,-14.1282,20,
109,1,1,1,5,1,46.0894,18.765,77.5992,3,1,2,3,1,0,0,77.5992,32.2962,1.958,-45.303,0,
109,1,1,1,6,1,136.9584,228.1068,79.8258,1,2,3,1,1,0,0,136.9584,155.0459,1.9722,18.0875,20,
109,1,1,1,7,0,289.1912,319.5068,107.2497,0,0,0,1,0,0,0,289.1912,280.7264,1.6873,-8.4647,30,
109,1,1,1,8,1,49.572,257.4728,198.5512,2,1,3,2,1,0,0,257.4728,303.4566,1.8956,45.9838,0,
109,1,1,1,9,0,165.1693,347.2055,255.6489,0,0,0,3,0,0,0,255.6489,256.5805,1.6453,0.93161,40,
109,1,1,1,10,0,228.007,199.7351,258.1561,0,0,0,3,0,0,0,258.1561,255.9677,1.1042,-2.1884,40,
109,1,1,1,11,1,47.5178,139.5352,315.6181,2,3,1,3,0,1,0,315.6181,27.6926,3.4094,72.0745,0,
109,1,1,1,12,1,48.1707,168.8863,199.4925,3,2,1,3,1,0,0,199.4925,189.7183,3.0274,-9.7742,30,
109,1,1,1,13,1,45.8059,17.0895,196.8453,1,2,3,1,1,0,0,45.8059,23.4694,2.4789,-22.3364,10,
109,1,1,1,14,1,226.5243,18.8994,167.4361,2,1,3,2,1,0,0,18.8994,180.9067,2.2846,162.0074,0,
109,1,1,1,15,1,107.2871,288.6659,137.7912,3,2,1,2,0,1,0,288.6659,277.7109,2.4927,-10.9549,30,
109,1,1,1,16,1,345.9916,285.1034,258.9614,2,3,1,1,0,0,1,345.9916,333.7505,2.3262,-12.2412,20,
109,1,1,1,17,0,17.4427,165.3267,137.2849,0,0,0,1,0,0,0,17.4427,8.7257,2.0345,-8.717,30,
109,1,1,1,18,1,225.5959,45.6461,285.3898,2,1,3,2,1,0,0,45.6461,51.3759,2.1039,5.7298,30,
109,1,1,1,19,0,345.5065,167.3447,108.5532,0,0,0,1,0,0,0,345.5065,338.2811,2.0136,-7.2254,30,
109,1,1,1,20,1,195.0114,49.7227,228.9624,1,3,2,1,1,0,0,195.0114,237.5723,1.9859,42.5608,0,
109,1,1,1,21,1,318.2166,139.1068,106.8927,2,3,1,1,0,0,1,318.2166,311.8827,1.5762,-6.3339,30,
109,1,1,1,22,0,18.1388,289.0957,195.9448,0,0,0,2,0,0,0,289.0957,313.1905,1.777,24.0949,10,
109,1,1,1,23,0,229.4223,166.7051,346.0256,0,0,0,1,0,0,0,229.4223,241.7167,2.4859,12.2944,20,
109,1,1,1,24,1,49.0602,75.163,347.0752,3,1,2,3,1,0,0,347.0752,354.6797,1.6039,7.6045,30,
109,1,1,1,25,0,346.1367,139.5344,49.3449,0,0,0,3,0,0,0,49.3449,36.1217,1.5484,-13.2232,20,
109,1,1,1,26,1,77.8374,108.2883,348.4279,2,1,3,1,0,1,0,77.8374,68.3903,2.1734,-9.447,30,
109,1,1,1,27,1,77.0033,256.8647,17.2163,1,3,2,1,1,0,0,77.0033,76.5106,3.6941,-0.49273,40,
109,1,1,1,28,1,288.4182,45.772,199.8716,2,1,3,3,0,0,1,199.8716,268.3979,1.7643,68.5263,0,
109,1,1,1,29,1,255.4666,286.0334,316.5138,1,2,3,2,0,1,0,286.0334,239.0945,2.3818,-46.9389,0,
109,1,1,1,30,0,167.4432,225.3904,107.6503,0,0,0,3,0,0,0,107.6503,98.4457,2.1665,-9.2046,30,
109,1,1,1,31,0,348.6538,109.5044,167.3202,0,0,0,1,0,0,0,348.6538,339.9709,1.4651,-8.6829,30,
109,1,1,1,32,1,255.7227,348.6468,197.4114,1,3,2,1,1,0,0,255.7227,238.9639,2.3679,-16.7588,20,
109,1,1,1,33,1,106.2995,48.3854,347.5991,1,2,3,3,0,0,1,347.5991,351.3856,1.1456,3.7865,30,
109,1,1,1,34,1,48.8653,16.9624,78.0265,1,3,2,1,1,0,0,48.8653,67.2153,2.2012,18.35,20,
109,1,1,1,35,0,75.5347,288.3139,139.7729,0,0,0,3,0,0,0,139.7729,66.3326,1.1249,-73.4403,0,
109,1,1,1,36,1,229.6057,109.4654,319.9859,1,3,2,3,0,1,0,319.9859,327.363,1.6659,7.3771,30,
109,1,1,1,37,1,259.233,18.9726,109.5014,3,1,2,3,1,0,0,109.5014,98.2956,1.5206,-11.2058,30,
109,1,1,1,38,0,256.0912,315.4982,168.0975,0,0,0,3,0,0,0,168.0975,173.5854,2.9581,5.4878,30,
109,1,1,1,39,0,165.5577,17.8966,139.3519,0,0,0,2,0,0,0,17.8966,61.4632,2.1943,43.5665,0,
109,1,1,1,40,1,139.5455,346.0382,196.9103,1,2,3,2,0,1,0,346.0382,346.3184,1.5971,0.28027,40,
109,1,1,1,41,1,226.8033,199.4036,348.7218,1,2,3,2,0,1,0,199.4036,351.4915,1.2361,152.0879,0,
109,1,1,1,42,0,258.5107,76.1986,169.7974,0,0,0,3,0,0,0,169.7974,165.7937,1.9303,-4.0037,30,
109,1,1,1,43,1,46.1226,316.3501,257.0922,1,2,3,1,1,0,0,46.1226,88.172,2.3817,42.0494,0,
109,1,1,1,44,1,138.3904,287.1424,258.274,3,1,2,3,1,0,0,258.274,257.8923,1.4998,-0.3817,40,
109,1,1,1,45,0,286.8174,107.1734,348.438,0,0,0,2,0,0,0,107.1734,92.1116,2.479,-15.0618,20,
109,1,1,1,46,1,15.6333,107.5663,138.5797,2,3,1,2,1,0,0,107.5663,106.4096,1.472,-1.1567,40,
109,1,1,1,47,1,257.6019,319.4264,18.2413,1,2,3,1,1,0,0,257.6019,252.3966,2.1247,-5.2053,30,
109,1,1,1,48,0,46.4256,137.6475,317.7992,0,0,0,1,0,0,0,46.4256,78.4937,1.6804,32.0681,0,
109,1,1,1,49,0,348.2232,319.9007,165.5086,0,0,0,2,0,0,0,319.9007,340.9008,1.3193,21.0001,10,
109,1,1,1,50,1,49.2794,288.072,15.5871,3,1,2,3,1,0,0,15.5871,5.3981,1.6389,-10.1889,30,
109,1,1,1,51,1,315.4042,227.0562,48.5632,3,2,1,3,1,0,0,48.5632,272.7435,3.5829,-135.8197,0,
109,1,1,1,52,0,258.014,17.9574,166.1263,0,0,0,1,0,0,0,258.014,260.8593,1.6318,2.8452,40,
109,1,1,1,53,1,46.9871,225.5229,135.9693,3,2,1,3,1,0,0,135.9693,148.8577,3.9372,12.8884,20,
109,1,1,1,54,1,316.1599,105.8405,255.1336,2,3,1,2,1,0,0,105.8405,89.9446,1.1249,-15.8959,20,
109,1,1,1,55,1,137.1783,255.6832,346.4986,3,1,2,3,1,0,0,346.4986,348.5529,5.2702,2.0543,40,
109,1,1,1,56,1,226.1171,48.3665,259.0939,3,1,2,3,1,0,0,259.0939,257.0141,1.2504,-2.0798,40,
109,1,1,1,57,0,167.0201,195.2052,76.4691,0,0,0,3,0,0,0,76.4691,92.2582,1.5762,15.7891,20,
109,1,1,1,58,1,17.6756,106.6678,139.2734,3,1,2,1,0,1,0,17.6756,9.8287,2.2706,-7.8469,30,
109,1,1,1,59,1,168.6383,19.2866,139.9592,3,1,2,2,0,0,1,19.2866,191.3313,2.6524,172.0447,0,
109,1,1,1,60,0,109.1686,49.0772,256.6198,0,0,0,2,0,0,0,49.0772,34.287,1.8609,-14.7903,20,
109,1,2,1,61,1,135.2687,168.1844,109.8019,2,1,3,2,1,0,0,168.1844,185.2321,2.4373,17.0478,20,
109,1,2,1,62,1,198.5914,169.7232,105.4389,3,1,2,3,1,0,0,105.4389,114.8717,1.3408,9.4327,30,
109,1,2,1,63,1,166.5304,259.8329,315.6497,1,3,2,2,0,0,1,259.8329,266.5389,1.8818,6.7059,30,
109,1,2,1,64,1,348.519,288.9045,17.8242,1,3,2,1,1,0,0,348.519,352.0569,1.7707,3.5379,30,
109,1,2,1,65,1,47.4122,17.1561,228.4941,3,1,2,3,1,0,0,228.4941,258.8649,1.9165,30.3708,0,
109,1,2,1,66,1,48.834,319.4916,78.8341,2,3,1,2,1,0,0,319.4916,335.2774,1.7637,15.7858,20,
109,1,2,1,67,0,259.652,137.2348,49.1694,0,0,0,3,0,0,0,49.1694,70.6647,3.6176,21.4952,10,
109,1,2,1,68,0,77.4526,227.0373,345.4197,0,0,0,2,0,0,0,227.0373,171.1816,2.958,-55.8557,0,
109,1,2,1,69,0,107.4171,288.4239,317.4001,0,0,0,3,0,0,0,317.4001,115.9736,3.2772,158.5735,0,
109,1,2,1,70,0,106.8887,256.3605,45.6265,0,0,0,1,0,0,0,106.8887,99.3025,1.6665,-7.5862,30,
109,1,2,1,71,1,76.054,256.3269,109.9659,2,1,3,2,1,0,0,256.3269,266.7413,3.1594,10.4144,30,
109,1,2,1,72,1,256.552,16.7177,75.3811,1,2,3,3,0,0,1,75.3811,90.3968,3.083,15.0156,20,
109,1,2,1,73,1,107.8588,347.9646,138.4931,3,2,1,1,0,0,1,107.8588,99.9846,1.8818,-7.8743,30,
109,1,2,1,74,0,137.135,109.5651,19.4866,0,0,0,2,0,0,0,109.5651,107.7422,1.979,-1.8229,40,
109,1,2,1,75,1,286.221,47.191,168.6755,2,3,1,2,1,0,0,47.191,56.9138,1.0486,9.7228,30,
109,1,2,1,76,0,318.3402,105.7629,255.3135,0,0,0,1,0,0,0,318.3402,274.9541,2.0485,-43.3861,0,
109,1,2,1,77,0,106.6075,289.4992,167.7106,0,0,0,2,0,0,0,289.4992,279.5259,3.0691,-9.9733,30,
109,1,2,1,78,1,316.3664,228.7335,77.4394,2,3,1,2,1,0,0,228.7335,244.6483,1.8886,15.9148,20,
109,1,2,1,79,0,108.9941,167.0244,137.4118,0,0,0,3,0,0,0,137.4118,111.4358,2.3748,-25.976,10,
109,1,2,1,80,1,228.6191,18.284,77.5739,3,1,2,1,0,1,0,228.6191,241.4307,2.7358,12.8115,20,
109,1,2,1,81,1,349.2665,317.3364,49.1836,3,2,1,3,1,0,0,49.1836,40.7443,1.2499,-8.4393,30,
109,1,2,1,82,1,317.5743,19.9949,76.8866,3,1,2,3,1,0,0,76.8866,64.9764,1.1324,-11.9102,30,
109,1,2,1,83,0,106.4416,15.825,77.2793,0,0,0,1,0,0,0,106.4416,108.2226,1.4442,1.781,40,
109,1,2,1,84,1,46.3343,225.3428,16.568,2,3,1,1,0,0,1,46.3343,51.6993,2.1318,5.365,30,
109,1,2,1,85,0,106.3698,138.2755,77.0353,0,0,0,1,0,0,0,106.3698,105.8326,2.3816,-0.53716,40,
109,1,2,1,86,1,229.4564,256.0814,18.4177,3,2,1,3,1,0,0,18.4177,24.1861,1.2568,5.7684,30,
109,1,2,1,87,0,47.0084,136.669,256.3379,0,0,0,3,0,0,0,256.3379,99.5078,1.8818,-156.8302,0,
109,1,2,1,88,0,165.9694,259.0404,49.9282,0,0,0,3,0,0,0,49.9282,83.4764,1.2915,33.5483,0,
109,1,2,1,89,0,286.3771,227.098,17.985,0,0,0,2,0,0,0,227.098,228.4781,4.0487,1.38,40,
109,1,2,1,90,1,165.3123,15.8923,106.6913,3,2,1,3,1,0,0,106.6913,108.0852,2.3956,1.3939,40,
109,1,2,1,91,0,47.5111,168.683,225.5606,0,0,0,1,0,0,0,47.5111,51.1777,2.1594,3.6666,30,
109,1,2,1,92,1,76.4371,229.5997,165.0303,1,3,2,1,1,0,0,76.4371,68.1516,3.583,-8.2855,30,
109,1,2,1,93,1,105.6268,287.1495,255.0818,1,3,2,1,1,0,0,105.6268,106.2765,1.7081,0.64966,40,
109,1,2,1,94,0,226.0151,18.975,199.8729,0,0,0,2,0,0,0,18.975,193.1501,2.472,174.1751,0,
109,1,2,1,95,1,257.4089,287.2294,198.9909,2,3,1,2,1,0,0,287.2294,298.3744,2.049,11.145,30,
109,1,2,1,96,1,345.3147,139.6001,199.5308,2,3,1,1,0,0,1,345.3147,301.8917,1.6457,-43.4229,0,
109,1,2,1,97,0,257.2098,349.198,168.0913,0,0,0,3,0,0,0,168.0913,157.7099,1.9303,-10.3814,30,
109,1,2,1,98,1,285.0765,318.7534,75.3106,3,2,1,3,1,0,0,75.3106,79.0329,2.9303,3.7223,30,
109,1,2,1,99,1,196.6344,135.5152,166.8521,1,2,3,1,1,0,0,196.6344,198.8308,1.0277,2.1964,40,
109,1,2,1,100,0,256.9666,17.1023,225.6856,0,0,0,3,0,0,0,225.6856,303.896,1.2151,78.2104,0,
109,1,2,1,101,1,48.808,348.2557,16.7554,2,1,3,3,0,0,1,16.7554,35.6339,1.4165,18.8785,20,
109,1,2,1,102,1,196.7117,317.8315,258.2726,2,1,3,2,1,0,0,317.8315,321.1722,1.1665,3.3407,30,
109,1,2,1,103,0,109.5259,166.3226,229.7491,0,0,0,2,0,0,0,166.3226,123.4854,1.4443,-42.8373,0,
109,1,2,1,104,0,49.6735,226.8027,199.7386,0,0,0,1,0,0,0,49.6735,59.8884,2.5969,10.2149,30,
109,1,2,1,105,0,17.5412,259.2672,48.419,0,0,0,2,0,0,0,259.2672,245.2405,1.1179,-14.0266,20,
109,1,2,1,106,1,76.3878,165.5043,317.4946,1,3,2,1,1,0,0,76.3878,88.8002,1.236,12.4124,20,
109,1,2,1,107,0,317.5248,288.6106,258.8055,0,0,0,2,0,0,0,288.6106,287.891,1.5623,-0.71953,40,
109,1,2,1,108,0,225.586,76.8997,48.8242,0,0,0,2,0,0,0,76.8997,61.4632,0.77072,-15.4365,20,
109,1,2,1,109,0,105.5768,227.506,289.0846,0,0,0,1,0,0,0,105.5768,97.0813,1.5693,-8.4955,30,
109,1,2,1,110,1,77.625,287.6556,349.3669,1,2,3,1,1,0,0,77.625,97.538,1.0555,19.913,20,
109,1,2,1,111,1,48.7756,137.6306,169.2506,2,1,3,1,0,1,0,48.7756,71.748,1.7707,22.9724,10,
109,1,2,1,112,1,196.7002,228.3195,48.6368,2,1,3,2,1,0,0,228.3195,239.625,2.0553,11.3055,30,
109,1,2,1,113,0,15.5643,198.2512,75.9544,0,0,0,1,0,0,0,15.5643,23.1977,2.4025,7.6334,30,
109,1,2,1,114,0,228.9358,345.9675,77.6546,0,0,0,3,0,0,0,77.6546,61.0231,1.8748,-16.6315,20,
109,1,2,1,115,0,258.7655,168.5152,106.2331,0,0,0,3,0,0,0,106.2331,111.2194,1.3679,4.9863,30,
109,1,2,1,116,0,15.5148,79.4181,107.6112,0,0,0,1,0,0,0,15.5148,356.8436,2.465,-18.6712,20,
109,1,2,1,117,1,109.1522,198.3681,315.6973,2,3,1,2,1,0,0,198.3681,197.4178,2.1594,-0.95034,40,
109,1,2,1,118,0,256.5109,226.4726,136.2991,0,0,0,2,0,0,0,226.4726,219.2471,1.3749,-7.2255,30,
109,1,2,1,119,0,285.2877,135.1063,76.449,0,0,0,2,0,0,0,135.1063,203.4404,1.5137,68.3341,0,
109,1,2,1,120,1,346.9215,226.6007,256.9667,2,1,3,2,1,0,0,226.6007,267.8807,2.7358,41.2799,0,
109,1,3,2,121,0,259.1155,19.3721,79.9918,0,0,0,3,0,0,0,79.9918,60.2896,1.6526,-19.7022,20,
109,1,3,2,122,1,228.6716,19.9273,318.4939,1,2,3,2,0,1,0,19.9273,NaN,100000,999,0,
109,1,3,2,123,0,16.7771,137.1919,319.5439,0,0,0,3,0,0,0,319.5439,69.2862,1.2984,109.7423,0,
109,1,3,2,124,0,196.9012,286.0929,108.6133,0,0,0,2,0,0,0,286.0929,281.7866,2.2151,-4.3064,30,
109,1,3,2,125,1,195.0869,317.356,255.2304,2,1,3,2,1,0,0,317.356,312.0881,1.6734,-5.2679,30,
109,1,3,2,126,1,137.7151,286.7856,48.308,1,3,2,1,1,0,0,137.7151,124.0518,1.1249,-13.6634,20,
109,1,3,2,127,1,46.9945,226.2444,289.6767,3,2,1,3,1,0,0,289.6767,62.26,0.88879,132.5833,0,
109,1,3,2,128,0,168.1491,257.3251,135.5459,0,0,0,2,0,0,0,257.3251,260.7098,1.6525,3.3847,30,
109,1,3,2,129,1,289.1691,198.0293,47.5896,2,3,1,2,1,0,0,198.0293,27.2703,1.3824,-170.759,0,
109,1,3,2,130,1,285.1747,348.8566,257.7026,3,1,2,2,0,0,1,348.8566,354.9667,1.604,6.1101,30,
109,1,3,2,131,0,199.1453,256.9438,225.8421,0,0,0,2,0,0,0,256.9438,254.3384,2.0067,-2.6054,40,
109,1,3,2,132,1,317.7223,195.411,107.9906,2,1,3,2,1,0,0,195.411,214.2868,2.4235,18.8757,20,
109,1,3,2,133,1,18.1363,286.0297,259.9009,1,3,2,2,0,0,1,286.0297,288.2091,1.6526,2.1795,40,
109,1,3,2,134,1,136.3179,105.8739,316.8431,3,2,1,2,0,1,0,105.8739,NaN,100000,999,0,
109,1,3,2,135,0,136.8066,257.35,315.2939,0,0,0,3,0,0,0,315.2939,299.6816,0.81242,-15.6123,20,
109,1,3,2,136,0,135.5589,287.4592,77.3078,0,0,0,1,0,0,0,135.5589,132.5638,1.3333,-2.9951,40,
109,1,3,2,137,0,77.4983,227.9224,259.6238,0,0,0,3,0,0,0,259.6238,257.3287,1.4032,-2.2951,40,
109,1,3,2,138,1,135.4817,15.6564,288.0495,1,3,2,1,1,0,0,135.4817,108.4336,1.4236,-27.0481,10,
109,1,3,2,139,1,165.5533,138.2034,195.3601,3,1,2,3,1,0,0,195.3601,304.1974,4.93,108.8373,0,
109,1,3,2,140,0,226.3889,105.4855,258.9141,0,0,0,1,0,0,0,226.3889,245.0232,1.3332,18.6344,20,
109,1,3,2,141,1,316.1998,229.638,138.8149,2,1,3,3,0,0,1,138.8149,306.4729,1.3887,167.658,0,
109,1,3,2,142,1,228.7839,289.0142,349.0156,3,2,1,2,0,1,0,289.0142,NaN,100000,999,0,
109,1,3,2,143,1,47.9719,285.7687,315.3131,2,1,3,3,0,0,1,315.3131,74.7788,3.444,119.4656,0,
109,1,3,2,144,1,15.9456,345.3543,285.1893,1,2,3,1,1,0,0,15.9456,22.0224,3.5824,6.0768,30,
109,1,3,2,145,0,257.1512,169.3563,318.5363,0,0,0,2,0,0,0,169.3563,160.979,2.0622,-8.3773,30,
109,1,3,2,146,1,15.2378,49.0018,227.3339,1,3,2,1,1,0,0,15.2378,31.9882,1.722,16.7504,20,
109,1,3,2,147,0,316.2021,46.0129,226.7411,0,0,0,1,0,0,0,316.2021,296.0373,1.972,-20.1648,20,
109,1,3,2,148,1,45.168,78.0781,195.5609,2,3,1,2,1,0,0,78.0781,142.5645,1.6318,64.4863,0,
109,1,3,2,149,1,79.0614,18.3341,46.9089,2,1,3,2,1,0,0,18.3341,79.0485,1.2013,60.7144,0,
109,1,3,2,150,1,75.1898,319.612,256.8657,3,1,2,1,0,1,0,75.1898,NaN,100000,999,0,
109,1,3,2,151,1,105.108,136.7051,196.922,2,3,1,2,1,0,0,136.7051,140.7778,2.0137,4.0727,30,
109,1,3,2,152,1,195.0824,15.7627,109.4977,1,2,3,1,1,0,0,195.0824,181.5128,1.8193,-13.5696,20,
109,1,3,2,153,1,49.6062,18.9082,286.2096,2,1,3,2,1,0,0,18.9082,90.9533,1.222,72.0451,0,
109,1,3,2,154,0,347.6564,78.106,46.4017,0,0,0,2,0,0,0,78.106,67.7799,1.7151,-10.3261,30,
109,1,3,2,155,0,288.4209,108.74,16.9582,0,0,0,3,0,0,0,16.9582,7.0965,2.5483,-9.8617,30,
109,1,3,2,156,1,198.8892,137.8473,165.1055,3,2,1,3,1,0,0,165.1055,145.0025,1.1526,-20.103,20,
109,1,3,2,157,0,75.1113,106.5056,346.4903,0,0,0,3,0,0,0,346.4903,89.2556,1.8128,102.7653,0,
109,1,3,2,158,1,165.0545,49.0987,195.1713,3,2,1,3,1,0,0,195.1713,195.2861,1.618,0.11474,40,
109,1,3,2,159,1,109.1325,285.0534,255.4778,3,2,1,3,1,0,0,255.4778,252.9979,1.1596,-2.4798,40,
109,1,3,2,160,0,285.6432,316.1039,257.2678,0,0,0,3,0,0,0,257.2678,282.5687,1.0069,25.3009,10,
109,1,3,2,161,1,106.1674,46.4605,138.3688,2,1,3,2,1,0,0,46.4605,74.8378,5.4647,28.3773,10,
109,1,3,2,162,1,318.877,196.767,139.1947,3,2,1,3,1,0,0,139.1947,113.0081,2.3748,-26.1866,10,
109,1,3,2,163,1,317.6756,17.5867,76.2786,1,3,2,3,0,1,0,76.2786,NaN,100000,999,0,
109,1,3,2,164,1,79.5412,286.426,255.6635,3,1,2,3,1,0,0,255.6635,62.5231,1.5767,166.8595,0,
109,1,3,2,165,1,19.3541,226.667,47.3152,2,1,3,2,1,0,0,226.667,238.5911,2.9928,11.9241,30,
109,1,3,2,166,1,347.7523,287.8153,316.523,3,2,1,3,1,0,0,316.523,313.0778,3.3051,-3.4452,30,
109,1,3,2,167,1,288.0835,346.0155,108.388,3,2,1,3,1,0,0,108.388,116.9856,2.3469,8.5976,30,
109,1,3,2,168,1,228.9714,17.4431,165.6529,2,1,3,2,1,0,0,17.4431,4.3466,1.6874,-13.0964,20,
109,1,3,2,169,1,197.16,259.6526,137.5394,1,3,2,1,1,0,0,197.16,189.407,1.8263,-7.753,30,
109,1,3,2,170,1,286.7386,18.3336,197.2723,2,3,1,2,1,0,0,18.3336,16.8487,1.4928,-1.4849,40,
109,1,3,2,171,0,45.0451,345.8454,256.0319,0,0,0,3,0,0,0,256.0319,251.6108,1.6665,-4.4211,30,
109,1,3,2,172,1,76.3501,257.4088,286.1034,3,2,1,3,1,0,0,286.1034,282.9332,2.486,-3.1702,30,
109,1,3,2,173,1,348.0693,226.4195,287.5407,2,3,1,2,1,0,0,226.4195,275.5115,2.0345,49.092,0,
109,1,3,2,174,1,47.3497,198.9559,107.0938,3,1,2,3,1,0,0,107.0938,90.4212,1.7914,-16.6726,20,
109,1,3,2,175,1,139.5776,257.6101,315.2598,3,1,2,1,0,1,0,139.5776,NaN,100000,999,0,
109,1,3,2,176,1,317.2746,198.2531,169.5221,3,1,2,1,0,1,0,317.2746,NaN,100000,999,0,
109,1,3,2,177,1,78.0946,289.8516,108.346,2,1,3,2,1,0,0,289.8516,277.0994,3.4857,-12.7522,20,
109,1,3,2,178,0,77.5057,315.7093,347.0319,0,0,0,2,0,0,0,315.7093,302.7952,1.2704,-12.9141,20,
109,1,3,2,179,1,169.1646,347.5077,255.5137,1,3,2,1,1,0,0,169.1646,170.9033,1.6734,1.7387,40,
109,1,3,2,180,0,315.7681,196.5423,75.6546,0,0,0,3,0,0,0,75.6546,109.8044,2.5692,34.1498,0,
109,1,4,2,181,0,168.0693,198.2604,318.0067,0,0,0,1,0,0,0,168.0693,177.9825,1.1105,9.9132,30,
109,1,4,2,182,0,226.9859,346.3891,136.8093,0,0,0,2,0,0,0,346.3891,336.2295,0.93047,-10.1595,30,
109,1,4,2,183,1,108.2279,77.5562,318.3105,2,1,3,2,1,0,0,77.5562,83.999,0.99298,6.4428,30,
109,1,4,2,184,1,226.3128,75.3932,316.1006,2,3,1,3,0,1,0,316.1006,NaN,100000,999,0,
109,1,4,2,185,1,225.0231,195.9423,138.8982,2,1,3,2,1,0,0,195.9423,166.1852,1.0555,-29.7571,10,
109,1,4,2,186,1,288.3429,137.1089,198.5138,1,3,2,1,1,0,0,288.3429,282.3304,1.2013,-6.0124,30,
109,1,4,2,187,0,346.2418,138.6184,227.1619,0,0,0,1,0,0,0,346.2418,296.1217,1.2915,-50.12,0,
109,1,4,2,188,1,136.522,316.7142,48.2967,2,1,3,1,0,1,0,136.522,NaN,100000,999,0,
109,1,4,2,189,0,18.38,319.3721,136.6547,0,0,0,2,0,0,0,319.3721,302.7514,1.6735,-16.6207,20,
109,1,4,2,190,1,345.7102,136.0875,288.8873,2,1,3,2,1,0,0,136.0875,118.5302,1.7709,-17.5573,20,
109,1,4,2,191,1,46.6209,345.8303,319.9904,2,3,1,3,0,1,0,319.9904,NaN,100000,999,0,
109,1,4,2,192,0,227.2501,195.8128,168.8246,0,0,0,2,0,0,0,195.8128,191.7561,1.7706,-4.0566,30,
109,1,4,2,193,0,137.7538,45.1055,348.6839,0,0,0,2,0,0,0,45.1055,41.9981,0.88876,-3.1075,30,
109,1,4,2,194,0,225.8808,76.1622,348.5751,0,0,0,1,0,0,0,225.8808,252.526,1.0484,26.6452,10,
109,1,4,2,195,1,165.3812,286.8469,259.0312,3,2,1,3,1,0,0,259.0312,270.0504,1.1457,11.0192,30,
109,1,4,2,196,1,285.8175,136.6198,319.0451,1,3,2,1,1,0,0,285.8175,286.6669,1.2221,0.8494,40,
109,1,4,2,197,1,256.5306,136.4539,17.1526,3,1,2,1,0,1,0,256.5306,NaN,100000,999,0,
109,1,4,2,198,1,168.5928,137.1222,46.2418,3,1,2,3,1,0,0,46.2418,60.6401,0.9999,14.3983,20,
109,1,4,2,199,0,109.2626,289.9196,255.2693,0,0,0,1,0,0,0,109.2626,106.7575,1.8741,-2.5051,40,
109,1,4,2,200,1,136.6332,196.8498,317.464,3,1,2,2,0,0,1,196.8498,200.4677,1.5068,3.6179,30,
109,1,4,2,201,0,15.2638,49.8001,228.361,0,0,0,1,0,0,0,15.2638,19.5199,1.8471,4.256,30,
109,1,4,2,202,0,169.6403,19.403,288.0954,0,0,0,2,0,0,0,19.403,56.6461,1.0207,37.243,0,
109,1,4,2,203,0,107.8175,135.7213,349.2803,0,0,0,1,0,0,0,107.8175,97.6883,1.1595,-10.1292,30,
109,1,4,2,204,0,17.5607,137.5771,197.3447,0,0,0,3,0,0,0,197.3447,33.2878,1.1457,-164.0569,0,
109,1,4,2,205,1,15.3174,137.9558,49.4988,2,3,1,1,0,0,1,15.3174,26.9946,1.5275,11.6772,30,
109,1,4,2,206,1,257.6961,289.6863,136.2781,2,3,1,2,1,0,0,289.6863,268.532,1.3818,-21.1543,10,
109,1,4,2,207,0,228.2249,256.091,138.4745,0,0,0,3,0,0,0,138.4745,135.8089,1.4449,-2.6656,40,
109,1,4,2,208,1,19.1114,286.5951,318.2852,1,3,2,1,1,0,0,19.1114,14.3838,1.8888,-4.7276,30,
109,1,4,2,209,1,108.1345,49.2601,77.4513,2,1,3,2,1,0,0,49.2601,77.0513,0.83328,27.7913,10,
109,1,4,2,210,1,18.7848,106.6625,229.4028,1,3,2,1,1,0,0,18.7848,359.0066,2.0345,-19.7782,20,
109,1,4,2,211,1,108.9877,198.9369,255.4779,2,3,1,2,1,0,0,198.9369,190.4148,1.7013,-8.5221,30,
109,1,4,2,212,1,287.6485,16.1093,108.7409,2,1,3,2,1,0,0,16.1093,6.2977,1.6109,-9.8116,30,
109,1,4,2,213,1,105.0812,136.0001,199.2925,3,2,1,1,0,0,1,105.0812,117.0392,1.3887,11.958,30,
109,1,4,2,214,0,15.0584,198.6422,47.0765,0,0,0,3,0,0,0,47.0765,15.0235,1.3818,-32.053,0,
109,1,4,2,215,0,79.6144,317.3332,16.8441,0,0,0,3,0,0,0,16.8441,27.3934,1.0353,10.5494,30,
109,1,4,2,216,0,46.5986,198.3553,347.6198,0,0,0,2,0,0,0,198.3553,193.7302,1.1665,-4.6251,30,
109,1,4,2,217,0,75.0974,348.0374,167.694,0,0,0,2,0,0,0,348.0374,171.7893,1.5138,-176.2481,0,
109,1,4,2,218,0,229.3881,318.0286,348.2341,0,0,0,1,0,0,0,229.3881,242.5119,1.1736,13.1238,20,
109,1,4,2,219,1,255.3654,18.7902,135.2536,3,2,1,1,0,0,1,255.3654,258.2917,1.2153,2.9263,40,
109,1,4,2,220,0,319.0146,258.651,168.9736,0,0,0,3,0,0,0,168.9736,158.1172,1.243,-10.8564,30,
109,1,4,2,221,1,316.7372,75.6977,286.0812,2,1,3,2,1,0,0,75.6977,72.3889,1.2707,-3.3088,30,
109,1,4,2,222,0,45.1275,316.1684,259.8939,0,0,0,1,0,0,0,45.1275,71.8628,2.4234,26.7353,10,
109,1,4,2,223,1,75.7855,108.128,139.6292,1,3,2,2,0,0,1,108.128,94.6223,1.1387,-13.5057,20,
109,1,4,2,224,1,196.5227,258.358,346.0222,3,1,2,3,1,0,0,346.0222,278.6083,2.0479,-67.4139,0,
109,1,4,2,225,1,48.9004,168.5124,227.1034,1,2,3,1,1,0,0,48.9004,65.7143,1.3887,16.8139,20,
109,1,4,2,226,1,317.9409,46.2309,196.9919,3,1,2,3,1,0,0,196.9919,217.7025,1.0693,20.7106,20,
109,1,4,2,227,1,225.3126,345.1289,316.6706,1,3,2,1,1,0,0,225.3126,250.1981,1.0902,24.8855,10,
109,1,4,2,228,0,286.9961,135.3096,166.4648,0,0,0,3,0,0,0,166.4648,153.2339,1.0555,-13.2309,20,
109,1,4,2,229,0,229.791,79.0882,287.1195,0,0,0,2,0,0,0,79.0882,85.4204,1.1248,6.3322,30,
109,1,4,2,230,1,256.2072,168.4799,195.0763,2,1,3,1,0,1,0,256.2072,NaN,100000,999,0,
109,1,4,2,231,1,315.0164,255.2243,165.9456,2,3,1,2,1,0,0,255.2243,258.7508,2.1733,3.5265,30,
109,1,4,2,232,1,346.3173,229.9929,18.5527,2,3,1,2,1,0,0,229.9929,265.8578,1.2012,35.8649,0,
109,1,4,2,233,0,196.3801,76.5574,288.3328,0,0,0,1,0,0,0,196.3801,181.8556,0.83325,-14.5245,20,
109,1,4,2,234,1,137.227,347.3276,318.6834,2,3,1,3,0,1,0,318.6834,NaN,100000,999,0,
109,1,4,2,235,1,109.2114,78.9399,257.6819,1,3,2,1,1,0,0,109.2114,101.0519,1.6665,-8.1595,30,
109,1,4,2,236,1,19.2867,228.0358,255.9856,1,2,3,1,1,0,0,19.2867,207.5095,4.0828,-171.7772,0,
109,1,4,2,237,1,139.962,18.3997,349.6745,3,1,2,1,0,1,0,139.962,NaN,100000,999,0,
109,1,4,2,238,1,106.4416,225.9318,259.7367,3,2,1,2,0,1,0,225.9318,NaN,100000,999,0,
109,1,4,2,239,1,108.8845,315.6691,48.501,1,2,3,1,1,0,0,108.8845,110.3875,2.3054,1.503,40,
109,1,4,2,240,0,76.7845,165.5625,256.2754,0,0,0,3,0,0,0,256.2754,269.2899,1.7848,13.0145,20,
109,1,5,2,241,1,228.2911,16.305,196.4227,1,3,2,2,0,0,1,16.305,55.4664,1.5415,39.1614,0,
109,1,5,2,242,0,227.3688,79.2558,19.6459,0,0,0,3,0,0,0,19.6459,23.1812,1.3746,3.5352,30,
109,1,5,2,243,1,16.426,259.5793,288.3534,2,3,1,1,0,0,1,16.426,355.5009,1.6104,-20.9251,20,
109,1,5,2,244,0,229.6716,108.9759,77.2713,0,0,0,2,0,0,0,108.9759,90.2296,0.81941,-18.7463,20,
109,1,5,2,245,1,259.5596,136.7567,46.8618,3,2,1,3,1,0,0,46.8618,20.4903,1.361,-26.3715,10,
109,1,5,2,246,0,228.1282,15.9025,195.1504,0,0,0,1,0,0,0,228.1282,219.1819,1.9581,-8.9463,30,
109,1,5,2,247,1,259.7368,16.5834,137.8908,1,2,3,2,0,1,0,16.5834,NaN,100000,999,0,
109,1,5,2,248,1,199.7466,319.7965,19.9497,3,1,2,2,0,0,1,319.7965,317.4427,1.5137,-2.3538,40,
109,1,5,2,249,1,199.978,259.3475,169.7395,3,1,2,3,1,0,0,169.7395,180.299,1.4859,10.5595,30,
109,1,5,2,250,1,49.2368,226.2849,286.886,2,1,3,2,1,0,0,226.2849,85.338,1.8821,-140.9469,0,
109,1,5,2,251,1,78.4787,138.4745,289.2668,3,2,1,3,1,0,0,289.2668,266.8738,1.4234,-22.393,10,
109,1,5,2,252,1,285.1528,317.72,19.1175,1,2,3,1,1,0,0,285.1528,268.8517,2.9441,-16.3011,20,
109,1,5,2,253,1,75.3009,349.3086,225.3544,2,1,3,2,1,0,0,349.3086,346.225,1.2638,-3.0836,30,
109,1,5,2,254,0,135.38,105.1417,197.1675,0,0,0,1,0,0,0,135.38,126.2202,1.7081,-9.1598,30,
109,1,5,2,255,0,79.8943,108.3037,19.2312,0,0,0,1,0,0,0,79.8943,106.008,1.5068,26.1136,10,
109,1,5,2,256,1,76.2625,197.1947,17.9359,1,3,2,1,1,0,0,76.2625,85.0387,2.2289,8.7762,30,
109,1,5,2,257,1,285.1975,227.1738,165.8719,1,3,2,2,0,0,1,227.1738,218.1364,1.2014,-9.0374,30,
109,1,5,2,258,0,139.4511,49.6629,195.6468,0,0,0,2,0,0,0,49.6629,230.0437,1.2221,-179.6192,0,
109,1,5,2,259,1,225.566,315.3581,197.9051,3,2,1,3,1,0,0,197.9051,222.6697,1.2568,24.7646,10,
109,1,5,2,260,1,19.5103,78.3466,135.8569,3,1,2,3,1,0,0,135.8569,98.9043,2.9024,-36.9525,0,
109,1,5,2,261,1,76.506,47.9148,285.5384,3,2,1,3,1,0,0,285.5384,276.0152,1.3749,-9.5231,30,
109,1,5,2,262,0,108.7769,168.2008,346.5331,0,0,0,2,0,0,0,168.2008,171.1365,1.3818,2.9358,40,
109,1,5,2,263,0,16.8902,109.4934,138.9438,0,0,0,3,0,0,0,138.9438,116.1092,1.0764,-22.8346,10,
109,1,5,2,264,1,78.1704,347.7574,258.8614,1,3,2,3,0,1,0,258.8614,NaN,100000,999,0,
109,1,5,2,265,0,258.6754,49.5882,15.153,0,0,0,3,0,0,0,15.153,261.4766,1.2013,-113.6764,0,
109,1,5,2,266,0,139.4723,165.3628,108.1772,0,0,0,1,0,0,0,139.4723,121.6727,1.2917,-17.7997,20,
109,1,5,2,267,0,287.6335,48.4547,345.2733,0,0,0,1,0,0,0,287.6335,281.4351,1.1179,-6.1984,30,
109,1,5,2,268,1,79.5617,109.5881,228.0927,2,3,1,2,1,0,0,109.5881,162.159,1.2569,52.5709,0,
109,1,5,2,269,1,256.2028,226.4117,78.9937,1,2,3,2,0,1,0,226.4117,NaN,100000,999,0,
109,1,5,2,270,1,195.7787,347.0457,228.4683,2,3,1,1,0,0,1,195.7787,218.0687,1.7081,22.29,10,
109,1,5,2,271,1,196.4051,228.0945,166.1022,2,3,1,1,0,0,1,196.4051,183.9095,0.93047,-12.4957,20,
109,1,5,2,272,0,106.9624,45.3351,198.8926,0,0,0,2,0,0,0,45.3351,192.5188,1.8335,147.1836,0,
109,1,5,2,273,1,319.0539,287.8236,165.2784,3,2,1,3,1,0,0,165.2784,177.1277,2.6658,11.8493,30,
109,1,5,2,274,1,347.212,197.3353,135.0519,1,2,3,1,1,0,0,347.212,352.2356,2.1456,5.0236,30,
109,1,5,2,275,1,197.5864,138.251,169.3563,3,1,2,3,1,0,0,169.3563,160.52,1.3124,-8.8362,30,
109,1,5,2,276,1,78.3333,196.916,348.4661,3,2,1,3,1,0,0,348.4661,350.8061,1.8539,2.34,40,
109,1,5,2,277,0,345.5161,229.0877,19.9005,0,0,0,1,0,0,0,345.5161,351.3994,2.8192,5.8833,30,
109,1,5,2,278,1,137.058,255.2561,106.5764,1,3,2,3,0,1,0,106.5764,NaN,100000,999,0,
109,1,5,2,279,1,316.2382,79.9271,105.6379,3,2,1,1,0,0,1,316.2382,336.6924,1.7429,20.4542,20,
109,1,5,2,280,0,229.4108,349.2476,197.8437,0,0,0,3,0,0,0,197.8437,209.5722,2.104,11.7285,30,
109,1,5,2,281,0,229.4693,315.8155,49.9449,0,0,0,1,0,0,0,229.4693,204.8854,1.0486,-24.584,10,
109,1,5,2,282,1,227.5872,18.508,255.2254,2,3,1,3,0,1,0,255.2254,NaN,100000,999,0,
109,1,5,2,283,0,315.497,78.0433,109.0218,0,0,0,3,0,0,0,109.0218,127.6631,2.2984,18.6413,20,
109,1,5,2,284,1,18.7949,169.6158,289.3606,1,2,3,1,1,0,0,18.7949,202.8964,1.0693,-175.8985,0,
109,1,5,2,285,1,199.3241,45.7012,348.2857,1,3,2,1,1,0,0,199.3241,201.2625,1.1456,1.9384,40,
109,1,5,2,286,0,288.9333,195.5999,77.0599,0,0,0,2,0,0,0,195.5999,206.2646,1.3263,10.6647,30,
109,1,5,2,287,1,107.9219,47.6928,319.9534,3,2,1,3,1,0,0,319.9534,302.7518,1.1389,-17.2016,20,
109,1,5,2,288,0,138.8452,256.7315,319.8373,0,0,0,1,0,0,0,138.8452,100.2286,1.5831,-38.6166,0,
109,1,5,2,289,0,78.9467,46.7546,196.1009,0,0,0,3,0,0,0,196.1009,211.631,1.8395,15.5301,20,
109,1,5,2,290,1,346.2992,48.4378,77.1625,1,2,3,1,1,0,0,346.2992,354.6776,1.9235,8.3784,30,
109,1,5,2,291,0,47.5361,168.0629,318.4329,0,0,0,2,0,0,0,168.0629,169.2238,1.5554,1.1609,40,
109,1,5,2,292,1,15.2567,229.1158,105.1847,2,1,3,2,1,0,0,229.1158,249.5536,1.6874,20.4377,20,
109,1,5,2,293,0,285.3355,346.8281,19.945,0,0,0,2,0,0,0,346.8281,338.4369,2.2498,-8.3912,30,
109,1,5,2,294,0,257.6577,228.2202,197.0375,0,0,0,2,0,0,0,228.2202,202.7028,1.6317,-25.5174,10,
109,1,5,2,295,0,199.4218,139.4775,15.3904,0,0,0,2,0,0,0,139.4775,137.4625,1.8123,-2.015,40,
109,1,5,2,296,1,45.5671,195.2449,226.3806,1,2,3,2,0,1,0,195.2449,NaN,100000,999,0,
109,1,5,2,297,0,349.7923,108.436,166.3002,0,0,0,2,0,0,0,108.436,115.154,1.4715,6.7181,30,
109,1,5,2,298,1,316.3041,199.2829,227.7306,1,2,3,1,1,0,0,316.3041,304.2108,2.0553,-12.0933,20,
109,1,5,2,299,0,195.2795,46.0652,78.8827,0,0,0,2,0,0,0,46.0652,34.5178,1.3541,-11.5474,30,
109,1,5,2,300,1,315.0698,346.9085,289.5356,2,3,1,2,1,0,0,346.9085,331.7882,1.8262,-15.1203,20,
109,1,6,2,301,1,79.7841,319.5073,168.5029,1,2,3,3,0,0,1,168.5029,202.7345,1.0279,34.2316,0,
109,1,6,2,302,1,109.2112,169.8573,285.7143,1,2,3,1,1,0,0,109.2112,109.8019,1.34,0.5907,40,
109,1,6,2,303,0,168.2753,226.9711,345.9674,0,0,0,1,0,0,0,168.2753,170.8874,0.97222,2.6121,40,
109,1,6,2,304,0,15.1918,169.2424,75.5724,0,0,0,1,0,0,0,15.1918,67.7095,1.0901,52.5178,0,
109,1,6,2,305,1,18.2956,318.6955,346.8718,2,3,1,1,0,0,1,18.2956,35.6179,1.8748,17.3223,20,
109,1,6,2,306,1,289.9226,49.8966,138.096,1,2,3,1,1,0,0,289.9226,289.2026,1.7984,-0.72001,40,
109,1,6,2,307,1,345.7543,78.3395,316.6828,1,3,2,1,1,0,0,345.7543,354.0432,1.9582,8.2889,30,
109,1,6,2,308,0,287.5451,135.1288,169.8776,0,0,0,2,0,0,0,135.1288,171.6781,2.0206,36.5493,0,
109,1,6,2,309,0,255.8467,108.1058,137.1231,0,0,0,1,0,0,0,255.8467,268.9355,1.5901,13.0888,20,
109,1,6,2,310,0,288.4203,137.4371,106.7839,0,0,0,3,0,0,0,106.7839,175.6439,1.3472,68.86,0,
109,1,6,2,311,0,229.9133,197.8603,16.1625,0,0,0,2,0,0,0,197.8603,194.5727,1.4165,-3.2876,30,
109,1,6,2,312,0,256.8618,16.533,49.4882,0,0,0,2,0,0,0,16.533,188.8697,1.361,172.3367,0,
109,1,6,2,313,1,105.2382,348.4136,317.3775,3,1,2,3,1,0,0,317.3775,339.7272,1.7777,22.3497,10,
109,1,6,2,314,1,46.5277,198.6016,289.2731,1,3,2,1,1,0,0,46.5277,71.5625,1.7359,25.0348,10,
109,1,6,2,315,0,76.2584,47.9057,229.0416,0,0,0,1,0,0,0,76.2584,69.861,1.4719,-6.3975,30,
109,1,6,2,316,1,15.2076,226.9566,199.3315,1,2,3,3,0,0,1,199.3315,201.8224,1.4096,2.4908,40,
109,1,6,2,317,0,105.538,18.4729,48.7088,0,0,0,1,0,0,0,105.538,100.4623,1.7151,-5.0756,30,
109,1,6,2,318,0,78.8217,168.5945,49.4033,0,0,0,2,0,0,0,168.5945,166.8707,1.7498,-1.7238,40,
109,1,6,2,319,0,17.4996,137.615,255.098,0,0,0,1,0,0,0,17.4996,73.3119,1.5901,55.8123,0,
109,1,6,2,320,1,259.6594,195.4038,225.3495,2,3,1,2,1,0,0,195.4038,170.3637,1.0902,-25.0401,10,
109,1,6,2,321,1,138.7434,316.0323,258.3285,3,2,1,3,1,0,0,258.3285,267.133,1.0971,8.8044,30,
109,1,6,2,322,1,226.0773,136.1014,199.4504,2,1,3,2,1,0,0,136.1014,157.365,1.1667,21.2637,10,
109,1,6,2,323,0,106.6549,46.057,18.1284,0,0,0,3,0,0,0,18.1284,187.1357,1.4859,169.0073,0,
109,1,6,2,324,0,75.7454,17.4716,229.2435,0,0,0,3,0,0,0,229.2435,354.4023,2.9858,125.1588,0,
109,1,6,2,325,0,227.1365,106.384,169.8902,0,0,0,3,0,0,0,169.8902,246.0938,1.1735,76.2036,0,
109,1,6,2,326,0,136.7248,289.6397,225.1506,0,0,0,3,0,0,0,225.1506,211.4758,1.4021,-13.6748,20,
109,1,6,2,327,1,226.6167,345.3252,106.8691,1,2,3,2,0,1,0,345.3252,NaN,100000,999,0,
109,1,6,2,328,1,137.1461,196.9953,105.3165,2,1,3,2,1,0,0,196.9953,176.0653,1.8401,-20.93,20,
109,1,6,2,329,0,165.379,347.1849,316.3581,0,0,0,1,0,0,0,165.379,176.5849,1.8679,11.2059,30,
109,1,6,2,330,1,198.6708,47.4609,167.0092,3,1,2,2,0,0,1,47.4609,42.2314,1.4096,-5.2294,30,
109,1,6,2,331,0,257.8686,48.9896,348.1638,0,0,0,1,0,0,0,257.8686,253.3873,1.6942,-4.4813,30,
109,1,6,2,332,0,45.5781,76.0204,105.5813,0,0,0,1,0,0,0,45.5781,4.6352,1.7082,-40.9429,0,
109,1,6,2,333,1,135.3108,108.4758,285.0103,1,2,3,3,0,0,1,285.0103,299.9516,1.2638,14.9413,20,
109,1,6,2,334,0,227.9536,315.0231,15.1538,0,0,0,3,0,0,0,15.1538,1.2569,1.2221,-13.8968,20,
109,1,6,2,335,1,49.2546,107.1262,77.872,1,2,3,1,1,0,0,49.2546,34.0501,1.5415,-15.2045,20,
109,1,6,2,336,1,348.9192,315.0932,109.5136,2,3,1,2,1,0,0,315.0932,317.8791,1.7845,2.7858,40,
109,1,6,2,337,1,17.6051,135.8951,258.0446,1,3,2,1,1,0,0,17.6051,19.4388,1.9234,1.8337,40,
109,1,6,2,338,0,166.9995,199.6776,317.3812,0,0,0,1,0,0,0,166.9995,181.8319,0.79154,14.8324,20,
109,1,6,2,339,0,135.6205,47.0353,285.3385,0,0,0,3,0,0,0,285.3385,299.1085,0.8888,13.77,20,
109,1,6,2,340,1,109.7587,15.5682,75.5864,3,1,2,2,0,0,1,15.5682,33.3345,1.8193,17.7663,20,
109,1,6,2,341,1,15.0025,285.5097,106.8519,3,1,2,3,1,0,0,106.8519,108.9006,1.9929,2.0487,40,
109,1,6,2,342,0,138.1121,78.2913,105.8854,0,0,0,2,0,0,0,78.2913,54.617,2.0484,-23.6744,10,
109,1,6,2,343,1,287.1474,78.8986,166.9833,1,2,3,2,0,1,0,78.8986,NaN,100000,999,0,
109,1,6,2,344,1,138.8128,289.8301,109.6494,3,1,2,3,1,0,0,109.6494,288.7063,2.4234,179.0569,0,
109,1,6,2,345,0,48.0687,106.7289,228.6132,0,0,0,2,0,0,0,106.7289,66.1209,2.1247,-40.608,0,
109,1,6,2,346,1,16.059,46.6451,78.8117,2,3,1,3,0,1,0,78.8117,NaN,100000,999,0,
109,1,6,2,347,1,319.6437,347.9149,165.0771,1,2,3,1,1,0,0,319.6437,326.6758,1.6109,7.032,30,
109,1,6,2,348,1,49.2638,197.4076,16.3615,1,2,3,3,0,0,1,16.3615,15.6729,1.2847,-0.68862,40,
109,1,6,2,349,1,168.5688,105.5118,137.2364,3,1,2,3,1,0,0,137.2364,123.7582,2.6039,-13.4783,20,
109,1,6,2,350,1,256.5323,289.1405,199.0395,3,1,2,3,1,0,0,199.0395,200.2926,2.1387,1.2531,40,
109,1,6,2,351,0,289.3933,257.0109,317.8066,0,0,0,1,0,0,0,289.3933,279.4685,6.6521,-9.9248,30,
109,1,6,2,352,0,45.738,169.6035,199.6473,0,0,0,1,0,0,0,45.738,17.277,1.4582,-28.461,10,
109,1,6,2,353,1,75.9207,225.0509,15.4296,2,3,1,2,1,0,0,225.0509,74.8466,2.6386,-150.2043,0,
109,1,6,2,354,1,166.8589,226.9144,46.2815,3,2,1,3,1,0,0,46.2815,65.8479,1.8338,19.5663,20,
109,1,6,2,355,0,255.2989,138.0798,107.8197,0,0,0,3,0,0,0,107.8197,72.3432,1.7567,-35.4766,0,
109,1,6,2,356,1,288.9209,349.9041,78.4497,1,3,2,1,1,0,0,288.9209,255.1308,2.0206,-33.7901,0,
109,1,6,2,357,1,228.5225,288.6814,78.2834,2,1,3,3,0,0,1,78.2834,68.2281,1.2916,-10.0553,30,
109,1,6,2,358,0,258.4428,139.2845,199.5032,0,0,0,3,0,0,0,199.5032,125.4296,1.3888,-74.0736,0,
109,1,6,2,359,0,75.109,109.102,226.4375,0,0,0,2,0,0,0,109.102,94.6738,1.3054,-14.4281,20,
109,1,6,2,360,0,228.5207,257.1121,199.7893,0,0,0,3,0,0,0,199.7893,245.852,3.4788,46.0627,0,
109,1,7,1,361,1,348.6401,108.1069,135.629,2,1,3,2,1,0,0,108.1069,112.0622,1.0902,3.9553,30,
109,1,7,1,362,1,165.9707,77.9004,136.2374,1,3,2,2,0,0,1,77.9004,68.9567,0.91909,-8.9437,30,
109,1,7,1,363,1,229.1241,195.9179,256.9655,1,2,3,2,0,1,0,195.9179,218.2696,1.6734,22.3517,10,
109,1,7,1,364,0,165.5695,109.6809,78.4418,0,0,0,2,0,0,0,109.6809,115.1142,0.99987,5.4333,30,
109,1,7,1,365,0,166.3811,318.0762,16.4743,0,0,0,3,0,0,0,16.4743,28.9709,1.6874,12.4966,20,
109,1,7,1,366,0,315.405,165.8073,195.459,0,0,0,1,0,0,0,315.405,291.5258,1.2082,-23.8792,10,
109,1,7,1,367,1,109.6495,47.4527,18.9816,1,3,2,1,1,0,0,109.6495,84.3051,2.6664,-25.3444,10,
109,1,7,1,368,1,315.9086,169.1649,17.0315,3,1,2,3,1,0,0,17.0315,216.3517,1.3957,-160.6798,0,
109,1,7,1,369,0,107.3031,169.6046,349.4309,0,0,0,2,0,0,0,169.6046,168.4338,2.1596,-1.1708,40,
109,1,7,1,370,1,108.4366,228.0565,165.4117,2,1,3,3,0,0,1,165.4117,181.3967,2.4303,15.985,20,
109,1,7,1,371,1,316.0868,15.5768,45.4294,3,1,2,1,0,1,0,316.0868,271.165,1.965,-44.9218,0,
109,1,7,1,372,0,169.7511,317.414,197.1645,0,0,0,3,0,0,0,197.1645,213.6003,1.6179,16.4358,20,
109,1,7,1,373,0,135.5719,46.7905,318.9267,0,0,0,1,0,0,0,135.5719,112.418,2.9233,-23.1539,10,
109,1,7,1,374,1,346.8346,19.0539,319.4885,2,1,3,1,0,1,0,346.8346,189.3212,1.1179,-157.5134,0,
109,1,7,1,375,0,45.1252,77.8716,18.6469,0,0,0,2,0,0,0,77.8716,85.4212,0.9791,7.5496,30,
109,1,7,1,376,1,317.5322,107.8856,259.3953,1,2,3,2,0,1,0,107.8856,97.0904,1.0764,-10.7952,30,
109,1,7,1,377,1,76.9089,199.9239,16.0256,1,3,2,3,0,1,0,16.0256,93.7081,2.0971,77.6825,0,
109,1,7,1,378,1,345.0754,165.4797,78.9348,3,2,1,3,1,0,0,78.9348,80.272,1.6254,1.3372,40,
109,1,7,1,379,0,109.1753,197.4117,135.2972,0,0,0,1,0,0,0,109.1753,100.0198,1.0346,-9.1554,30,
109,1,7,1,380,1,196.7345,169.6713,346.8693,3,2,1,3,1,0,0,346.8693,337.5326,1.0832,-9.3366,30,
109,1,7,1,381,0,107.2397,46.175,135.3356,0,0,0,2,0,0,0,46.175,60.8187,2.8677,14.6437,20,
109,1,7,1,382,0,226.7344,348.1009,317.1787,0,0,0,3,0,0,0,317.1787,320.4588,3.1177,3.2801,30,
109,1,7,1,383,1,195.1111,168.29,137.2932,3,2,1,3,1,0,0,137.2932,276.0794,2.958,138.7861,0,
109,1,7,1,384,0,347.3584,46.9958,19.5556,0,0,0,2,0,0,0,46.9958,50.9833,0.93754,3.9875,30,
109,1,7,1,385,1,319.1758,109.2633,258.2195,2,1,3,2,1,0,0,109.2633,96.5164,1.4999,-12.7469,20,
109,1,7,1,386,1,197.0324,288.9135,137.166,3,1,2,2,0,0,1,288.9135,285.3644,2.1385,-3.549,30,
109,1,7,1,387,0,348.7326,75.5152,105.2421,0,0,0,2,0,0,0,75.5152,83.1261,1.2082,7.6109,30,
109,1,7,1,388,0,77.205,226.647,167.8605,0,0,0,1,0,0,0,77.205,69.9295,1.5276,-7.2755,30,
109,1,7,1,389,0,345.8717,259.7531,79.8875,0,0,0,2,0,0,0,259.7531,265.4693,1.604,5.7162,30,
109,1,7,1,390,1,285.5664,17.3066,228.5932,1,2,3,1,1,0,0,285.5664,282.1993,1.3124,-3.3672,30,
109,1,7,1,391,0,196.333,165.6764,255.3885,0,0,0,3,0,0,0,255.3885,261.9632,1.104,6.5747,30,
109,1,7,1,392,1,106.7317,169.8031,346.5066,3,2,1,3,1,0,0,346.5066,340.5488,0.79851,-5.9578,30,
109,1,7,1,393,1,136.2231,17.9134,225.2637,2,3,1,1,0,0,1,136.2231,98.6139,0.9374,-37.6092,0,
109,1,7,1,394,0,48.0304,138.6822,108.5663,0,0,0,2,0,0,0,138.6822,116.1264,1.2985,-22.5558,10,
109,1,7,1,395,1,135.9702,318.1324,228.1037,3,2,1,3,1,0,0,228.1037,241.4361,0.97212,13.3324,20,
109,1,7,1,396,1,165.2446,15.5411,79.2915,2,3,1,2,1,0,0,15.5411,22.8661,0.73597,7.325,30,
109,1,7,1,397,1,285.1272,199.8929,135.661,2,3,1,2,1,0,0,199.8929,15.754,0.8402,175.8611,0,
109,1,7,1,398,1,108.6478,317.4935,257.7333,1,3,2,1,1,0,0,108.6478,90.6801,1.4095,-17.9676,20,
109,1,7,1,399,1,47.793,198.7833,229.8796,1,3,2,1,1,0,0,47.793,87.6121,1.4373,39.8192,0,
109,1,7,1,400,0,16.5286,198.8272,226.2644,0,0,0,3,0,0,0,226.2644,260.206,1.1665,33.9415,0,
109,1,7,1,401,1,257.3597,48.9807,169.3782,2,1,3,3,0,0,1,169.3782,203.2803,1.1596,33.902,0,
109,1,7,1,402,0,226.0922,49.7603,76.8113,0,0,0,1,0,0,0,226.0922,226.3583,0.97902,0.26606,40,
109,1,7,1,403,0,227.4851,346.4198,105.371,0,0,0,2,0,0,0,346.4198,171.8837,1.3888,-174.536,0,
109,1,7,1,404,1,256.8705,46.0809,17.8801,1,2,3,2,0,1,0,46.0809,58.7466,0.75684,12.6657,20,
109,1,7,1,405,1,15.124,49.5563,345.74,2,3,1,1,0,0,1,15.124,2.0575,4.4023,-13.0665,20,
109,1,7,1,406,1,259.4542,17.9429,105.8129,1,3,2,1,1,0,0,259.4542,263.3884,1.3194,3.9342,30,
109,1,7,1,407,1,16.7648,199.979,316.8248,1,2,3,1,1,0,0,16.7648,210.4855,1.7567,-166.2793,0,
109,1,7,1,408,0,49.1793,317.9413,226.8173,0,0,0,1,0,0,0,49.1793,29.1112,2.097,-20.0681,20,
109,1,7,1,409,1,135.3203,49.2732,19.8723,3,2,1,3,1,0,0,19.8723,28.9099,1.5901,9.0376,30,
109,1,7,1,410,1,348.9881,196.8402,165.0757,2,1,3,2,1,0,0,196.8402,181.1884,1.8748,-15.6518,20,
109,1,7,1,411,0,169.6561,48.0783,106.2914,0,0,0,2,0,0,0,48.0783,57.0692,0.65969,8.9909,30,
109,1,7,1,412,1,259.3564,318.0681,106.3572,1,3,2,1,1,0,0,259.3564,285.7156,1.2915,26.3591,10,
109,1,7,1,413,1,48.6716,136.6975,346.5138,2,3,1,2,1,0,0,136.6975,136.5909,1.0693,-0.10659,40,
109,1,7,1,414,0,46.251,18.0135,228.1273,0,0,0,3,0,0,0,228.1273,222.8343,1.1387,-5.2929,30,
109,1,7,1,415,0,18.6461,228.4192,138.2071,0,0,0,3,0,0,0,138.2071,227.7194,1.3817,89.5124,0,
109,1,7,1,416,0,137.01,78.9045,259.1961,0,0,0,3,0,0,0,259.1961,254.5591,1.0971,-4.637,30,
109,1,7,1,417,1,228.0223,256.9172,107.7524,2,1,3,2,1,0,0,256.9172,261.9807,1.6875,5.0635,30,
109,1,7,1,418,1,77.5213,136.8426,18.4262,1,2,3,3,0,0,1,18.4262,10.7988,1.3471,-7.6275,30,
109,1,7,1,419,1,45.0179,257.1253,16.1217,2,3,1,2,1,0,0,257.1253,275.0245,1.8193,17.8992,20,
109,1,7,1,420,1,167.9834,315.0926,139.666,2,3,1,2,1,0,0,315.0926,268.2836,1.3959,-46.809,0,
109,1,8,1,421,0,19.4819,349.1117,259.4139,0,0,0,3,0,0,0,259.4139,90.5462,1.0762,-168.8677,0,
109,1,8,1,422,1,226.2781,19.858,77.9056,1,2,3,2,0,1,0,19.858,57.6991,0.92544,37.8411,0,
109,1,8,1,423,1,45.6067,75.203,349.4397,2,1,3,2,1,0,0,75.203,86.6461,0.75691,11.4431,30,
109,1,8,1,424,0,108.7988,198.075,135.7603,0,0,0,1,0,0,0,108.7988,97.8469,1.2221,-10.9519,30,
109,1,8,1,425,1,347.5489,78.1367,19,2,3,1,2,1,0,0,78.1367,91.3126,0.87493,13.1758,20,
109,1,8,1,426,1,258.037,49.9834,195.2119,1,3,2,2,0,0,1,49.9834,85.6329,0.80543,35.6495,0,
109,1,8,1,427,1,229.2602,15.4968,257.9889,3,2,1,3,1,0,0,257.9889,253.9105,1.361,-4.0784,30,
109,1,8,1,428,1,345.1878,285.5768,259.0935,1,2,3,1,1,0,0,345.1878,264.6231,2.4373,-80.5647,0,
109,1,8,1,429,1,107.8684,347.4155,47.1081,2,1,3,3,0,0,1,47.1081,31.5538,1.7012,-15.5543,20,
109,1,8,1,430,1,196.8805,76.0165,165.8958,3,2,1,3,1,0,0,165.8958,105.7128,3.7432,-60.183,0,
109,1,8,1,431,1,259.979,135.0422,228.6642,3,2,1,1,0,0,1,259.979,264.7373,2.1249,4.7583,30,
109,1,8,1,432,1,289.2735,346.0245,19.3018,2,1,3,2,1,0,0,346.0245,65.1798,2.4235,79.1553,0,
109,1,8,1,433,0,348.6641,77.3639,16.9629,0,0,0,2,0,0,0,77.3639,86.2649,1.0762,8.9009,30,
109,1,8,1,434,0,139.7399,49.6835,109.9839,0,0,0,3,0,0,0,109.9839,107.4859,2.2775,-2.498,40,
109,1,8,1,435,0,258.7759,16.4223,166.0312,0,0,0,2,0,0,0,16.4223,10.6391,0.77079,-5.7832,30,
109,1,8,1,436,1,285.3578,135.942,106.6778,2,3,1,3,0,1,0,106.6778,92.8173,1.1528,-13.8606,20,
109,1,8,1,437,1,287.168,75.6769,166.078,2,3,1,2,1,0,0,75.6769,92.0876,1.2777,16.4107,20,
109,1,8,1,438,1,348.0378,45.3974,137.0769,3,2,1,1,0,0,1,348.0378,269.84,1.868,-78.1978,0,
109,1,8,1,439,1,228.4184,79.442,138.5643,3,1,2,3,1,0,0,138.5643,111.7952,1.0207,-26.7691,10,
109,1,8,1,440,1,106.9983,77.2006,196.5481,3,1,2,3,1,0,0,196.5481,214.508,1.236,17.9599,20,
109,1,8,1,441,1,138.2049,259.8788,319.6033,3,2,1,3,1,0,0,319.6033,311.9928,1.3124,-7.6106,30,
109,1,8,1,442,0,16.7871,75.6814,169.0289,0,0,0,3,0,0,0,169.0289,188.8184,1.2499,19.7895,20,
109,1,8,1,443,1,138.017,198.3382,169.3166,1,3,2,1,1,0,0,138.017,104.6391,1.5281,-33.3779,0,
109,1,8,1,444,1,46.4313,349.1655,288.8512,1,2,3,1,1,0,0,46.4313,90.3045,1.3882,43.8733,0,
109,1,8,1,445,1,15.4099,286.8748,255.435,3,2,1,2,0,1,0,286.8748,106.8541,4.0689,179.9793,0,
109,1,8,1,446,0,258.6654,107.634,76.3465,0,0,0,1,0,0,0,258.6654,260.6848,1.3957,2.0193,40,
109,1,8,1,447,1,108.6335,169.8065,228.7511,1,3,2,1,1,0,0,108.6335,102.7508,2.8053,-5.8827,30,
109,1,8,1,448,1,16.72,286.1982,165.002,1,2,3,2,0,1,0,286.1982,283.5617,1.7152,-2.6365,40,
109,1,8,1,449,0,168.6221,287.0458,139.9883,0,0,0,1,0,0,0,168.6221,178.5343,1.0695,9.9122,30,
109,1,8,1,450,1,348.249,318.9504,75.3615,3,2,1,3,1,0,0,75.3615,52.5431,1.3818,-22.8184,10,
109,1,8,1,451,1,47.0638,317.0801,197.3169,3,1,2,3,1,0,0,197.3169,70.4016,1.132,-126.9152,0,
109,1,8,1,452,0,255.3488,319.3022,166.0419,0,0,0,3,0,0,0,166.0419,162.5298,2.0414,-3.5122,30,
109,1,8,1,453,1,286.5414,166.6602,19.658,2,1,3,2,1,0,0,166.6602,155.3433,1.6178,-11.3169,30,
109,1,8,1,454,0,48.7005,137.024,315.2571,0,0,0,2,0,0,0,137.024,137.0239,1.4025,-0.00011329,40,
109,1,8,1,455,0,258.172,318.6573,285.7818,0,0,0,1,0,0,0,258.172,264.5683,1.5276,6.3963,30,
109,1,8,1,456,0,165.231,257.1094,286.7793,0,0,0,2,0,0,0,257.1094,256.1669,2.6456,-0.94248,40,
109,1,8,1,457,0,227.6564,169.6851,256.6671,0,0,0,1,0,0,0,227.6564,268.6278,3.4511,40.9715,0,
109,1,8,1,458,1,107.2598,348.8097,288.1292,1,3,2,1,1,0,0,107.2598,92.3968,1.4099,-14.8629,20,
109,1,8,1,459,1,15.902,46.4852,199.1465,1,2,3,1,1,0,0,15.902,184.3109,1.8331,168.4089,0,
109,1,8,1,460,0,168.8212,106.8982,197.2703,0,0,0,1,0,0,0,168.8212,184.9125,1.4303,16.0913,20,
109,1,8,1,461,0,137.7108,199.1513,166.5872,0,0,0,3,0,0,0,166.5872,193.6593,1.2429,27.0721,10,
109,1,8,1,462,1,137.9032,285.9225,347.4746,2,3,1,2,1,0,0,285.9225,330.0648,1.9025,44.1423,0,
109,1,8,1,463,1,196.5762,75.7709,106.9421,3,2,1,2,0,1,0,75.7709,85.1507,1.5069,9.3797,30,
109,1,8,1,464,1,285.3413,136.0661,78.8595,1,3,2,1,1,0,0,285.3413,280.6983,1.5137,-4.643,30,
109,1,8,1,465,1,108.3365,79.3563,165.9066,2,1,3,1,0,1,0,108.3365,93.4172,0.94427,-14.9192,20,
109,1,8,1,466,1,168.7508,348.7918,47.9178,1,3,2,2,0,0,1,348.7918,348.9603,1.1944,0.16856,40,
109,1,8,1,467,1,136.3524,348.8175,316.5929,3,1,2,3,1,0,0,316.5929,125.871,2.1803,169.2782,0,
109,1,8,1,468,1,75.5238,107.2228,287.4528,3,1,2,1,0,1,0,75.5238,93.4007,1.229,17.877,20,
109,1,8,1,469,1,108.5544,76.3167,166.4805,3,1,2,3,1,0,0,166.4805,186.3003,1.9443,19.8198,20,
109,1,8,1,470,0,259.2464,105.2999,18.8336,0,0,0,3,0,0,0,18.8336,357.801,1.4929,-21.0326,10,
109,1,8,1,471,1,75.1583,345.7907,108.5985,3,1,2,3,1,0,0,108.5985,94.7914,1.8609,-13.8071,20,
109,1,8,1,472,0,138.904,195.9652,285.8697,0,0,0,1,0,0,0,138.904,101.9454,1.4995,-36.9585,0,
109,1,8,1,473,0,199.5466,285.8034,138.6897,0,0,0,1,0,0,0,199.5466,266.8838,1.4791,67.3372,0,
109,1,8,1,474,0,45.596,168.2843,289.7366,0,0,0,2,0,0,0,168.2843,153.4571,1.6526,-14.8272,20,
109,1,8,1,475,0,47.2486,259.3221,289.7698,0,0,0,1,0,0,0,47.2486,74.4738,1.6526,27.2252,10,
109,1,8,1,476,1,259.3878,105.4648,79.6492,3,2,1,3,1,0,0,79.6492,260.7031,1.9651,-178.9461,0,
109,1,8,1,477,0,77.187,227.5914,47.8009,0,0,0,1,0,0,0,77.187,85.1594,1.5484,7.9724,30,
109,1,8,1,478,0,197.6277,46.1462,135.2819,0,0,0,3,0,0,0,135.2819,121.5364,1.6388,-13.7456,20,
109,1,8,1,479,1,139.1133,197.1161,345.5079,1,3,2,1,1,0,0,139.1133,106.8435,1.6601,-32.2698,0,
109,1,8,1,480,1,17.8186,46.5734,105.7283,1,2,3,3,0,0,1,105.7283,87.8631,1.9581,-17.8653,20,
