Subject,Session,Block,Condition,Trial,whetherCued,leftStim,rightStim,midStim,remCueLoc,fogCueLoc,neutralCueLoc,probeCueLoc,probeRem,probeForget,probeNeutral,Target,Estimate,RT,Error,Points
106,1,1,2,1,0,49.7896,79.9464,316.1134,0,0,0,3,0,0,0,316.1134,301.0667,0.96381,-15.0467,20,
106,1,1,2,2,0,77.0194,199.4614,227.103,0,0,0,2,0,0,0,199.4614,100.9744,2.2982,-98.487,0,
106,1,1,2,3,1,107.3167,76.231,48.7899,1,3,2,1,1,0,0,107.3167,105.4648,1.4999,-1.8518,40,
106,1,1,2,4,1,46.5011,229.286,259.0886,1,2,3,1,1,0,0,46.5011,71.0956,2.1253,24.5946,10,
106,1,1,2,5,1,167.7587,285.8897,225.4277,3,2,1,3,1,0,0,225.4277,241.74,1.9372,16.3123,20,
106,1,1,2,6,0,139.4448,16.7913,257.1701,0,0,0,2,0,0,0,16.7913,121.5477,1.5623,104.7564,0,
106,1,1,2,7,0,287.5328,228.5846,106.5061,0,0,0,2,0,0,0,228.5846,249.9043,2.7565,21.3198,10,
106,1,1,2,8,1,285.7947,107.626,166.5987,3,1,2,3,1,0,0,166.5987,169.1203,2.0068,2.5216,40,
106,1,1,2,9,1,45.2874,135.0467,79.1546,3,1,2,3,1,0,0,79.1546,69.1097,1.8193,-10.0448,30,
106,1,1,2,10,0,79.647,105.642,46.1049,0,0,0,2,0,0,0,105.642,105.8466,1.7567,0.20455,40,
106,1,1,2,11,1,136.1606,18.991,46.1892,1,3,2,2,0,0,1,18.991,61.5733,2.5894,42.5822,0,
106,1,1,2,12,1,79.8082,137.2081,288.4624,2,3,1,2,1,0,0,137.2081,97.6371,1.7846,-39.571,0,
106,1,1,2,13,0,109.8696,78.5771,198.492,0,0,0,3,0,0,0,198.492,209.5265,1.472,11.0345,30,
106,1,1,2,14,1,257.1834,225.656,198.267,3,1,2,3,1,0,0,198.267,211.9944,2.5482,13.7274,20,
106,1,1,2,15,1,288.0548,167.4508,77.2238,2,1,3,2,1,0,0,167.4508,177.6494,1.5831,10.1986,30,
106,1,1,2,16,0,49.7556,255.3335,19.7307,0,0,0,1,0,0,0,49.7556,31.0752,1.8401,-18.6804,20,
106,1,1,2,17,1,45.2934,319.0682,76.7284,2,3,1,2,1,0,0,319.0682,266.2523,1.479,-52.816,0,
106,1,1,2,18,1,286.8599,346.6542,105.0926,2,1,3,2,1,0,0,346.6542,245.429,1.514,-101.2253,0,
106,1,1,2,19,1,285.6755,229.6926,197.3393,1,3,2,1,1,0,0,285.6755,279.3226,1.3401,-6.3529,30,
106,1,1,2,20,1,139.9254,167.2356,75.3731,3,2,1,3,1,0,0,75.3731,83.1163,1.6594,7.7432,30,
106,1,1,2,21,1,197.0647,19.8204,227.9956,2,1,3,1,0,1,0,197.0647,NaN,100000,999,0,
106,1,1,2,22,1,78.4508,138.1395,108.8821,1,3,2,3,0,1,0,108.8821,NaN,100000,999,0,
106,1,1,2,23,1,45.2953,226.1567,319.6772,2,1,3,2,1,0,0,226.1567,253.8201,1.4443,27.6634,10,
106,1,1,2,24,1,225.5774,45.6965,137.0227,1,3,2,1,1,0,0,225.5774,242.6782,1.6457,17.1008,20,
106,1,1,2,25,1,135.8829,345.8672,79.2824,1,3,2,2,0,0,1,345.8672,359.7069,1.3963,13.8397,20,
106,1,1,2,26,1,139.625,347.4725,106.1053,3,2,1,3,1,0,0,106.1053,119.902,1.7498,13.7967,20,
106,1,1,2,27,1,49.1854,227.8516,108.9154,2,1,3,3,0,0,1,108.9154,103.0767,1.6178,-5.8387,30,
106,1,1,2,28,1,136.265,229.3607,287.681,3,1,2,2,0,0,1,229.3607,241.897,2.4719,12.5363,20,
106,1,1,2,29,1,199.1968,317.8928,256.3782,2,1,3,2,1,0,0,317.8928,300.8633,1.4581,-17.0296,20,
106,1,1,2,30,0,169.6031,226.8127,315.3177,0,0,0,3,0,0,0,315.3177,324.1844,1.1179,8.8667,30,
106,1,1,2,31,0,347.8238,165.2285,49.6889,0,0,0,1,0,0,0,347.8238,351.6952,1.3401,3.8713,30,
106,1,1,2,32,1,135.9108,16.6392,345.1189,2,1,3,2,1,0,0,16.6392,12.1532,1.4511,-4.486,30,
106,1,1,2,33,0,19.1732,169.0778,287.7741,0,0,0,2,0,0,0,169.0778,177.0563,3.4296,7.9786,30,
106,1,1,2,34,0,167.3649,288.591,225.64,0,0,0,3,0,0,0,225.64,243.5952,2.2289,17.9552,20,
106,1,1,2,35,1,135.7817,225.654,195.8518,2,1,3,2,1,0,0,225.654,225.3423,1.7497,-0.31162,40,
106,1,1,2,36,0,168.3601,139.042,18.3845,0,0,0,1,0,0,0,168.3601,155.0538,1.4929,-13.3063,20,
106,1,1,2,37,1,136.23,167.0824,226.8499,1,3,2,3,0,1,0,226.8499,NaN,100000,999,0,
106,1,1,2,38,1,135.2984,49.8434,105.3275,1,2,3,3,0,0,1,105.3275,106.0436,2.472,0.71603,40,
106,1,1,2,39,1,138.8971,45.4316,75.8945,3,2,1,3,1,0,0,75.8945,97.0424,1.6875,21.1479,10,
106,1,1,2,40,1,105.0693,46.3358,169.6604,2,1,3,2,1,0,0,46.3358,77.7375,1.3962,31.4017,0,
106,1,1,2,41,0,49.4302,315.5335,108.1016,0,0,0,3,0,0,0,108.1016,282.3127,1.8262,174.2111,0,
106,1,1,2,42,0,139.8005,288.062,226.7679,0,0,0,1,0,0,0,139.8005,116.3482,1.4027,-23.4523,10,
106,1,1,2,43,1,167.6678,48.1755,289.787,2,3,1,2,1,0,0,48.1755,52.0197,0.93752,3.8442,30,
106,1,1,2,44,1,197.9081,229.34,345.6535,3,1,2,2,0,0,1,229.34,220.8555,1.5554,-8.4845,30,
106,1,1,2,45,1,198.3868,316.8924,47.1722,2,3,1,2,1,0,0,316.8924,253.2322,3.3052,-63.6602,0,
106,1,1,2,46,1,348.8737,46.761,135.9903,3,1,2,3,1,0,0,135.9903,124.435,1.6249,-11.5553,30,
106,1,1,2,47,0,76.903,197.0924,45.3297,0,0,0,3,0,0,0,45.3297,318.3952,3.5413,-86.9344,0,
106,1,1,2,48,1,136.5088,229.1604,288.8523,1,3,2,2,0,0,1,229.1604,238.5082,1.5206,9.3478,30,
106,1,1,2,49,0,106.3387,229.2591,259.1417,0,0,0,3,0,0,0,259.1417,272.6462,1.5623,13.5045,20,
106,1,1,2,50,0,225.4507,45.0226,165.9356,0,0,0,2,0,0,0,45.0226,55.2376,1.4859,10.215,30,
106,1,1,2,51,1,195.0187,348.9883,316.4683,2,1,3,2,1,0,0,348.9883,4.3931,1.2776,15.4048,20,
106,1,1,2,52,0,256.5477,167.6544,347.6966,0,0,0,2,0,0,0,167.6544,354.4792,2.4095,-173.1752,0,
106,1,1,2,53,1,48.4942,167.3936,196.9609,3,2,1,3,1,0,0,196.9609,174.3403,1.8407,-22.6206,10,
106,1,1,2,54,1,77.8891,166.4372,198.8866,2,1,3,2,1,0,0,166.4372,152.7907,2.0756,-13.6465,20,
106,1,1,2,55,1,198.7267,319.6301,78.7633,1,2,3,2,0,1,0,319.6301,NaN,100000,999,0,
106,1,1,2,56,0,105.7815,18.9205,318.0679,0,0,0,1,0,0,0,105.7815,93.9058,1.0901,-11.8757,30,
106,1,1,2,57,1,195.9681,75.3757,135.4207,2,3,1,2,1,0,0,75.3757,75.3542,0.7153,-0.021496,40,
106,1,1,2,58,1,318.4292,136.9758,259.457,2,3,1,2,1,0,0,136.9758,133.3375,2.0414,-3.6384,30,
106,1,1,2,59,0,315.8649,286.3007,139.7834,0,0,0,3,0,0,0,139.7834,298.1515,1.1873,158.3682,0,
106,1,1,2,60,1,136.7631,349.82,167.8037,2,3,1,2,1,0,0,349.82,340.9008,1.2291,-8.9192,30,
106,1,2,2,61,1,167.6301,256.6044,226.4234,3,1,2,1,0,1,0,167.6301,NaN,100000,999,0,
106,1,2,2,62,1,137.7579,257.587,17.0248,1,2,3,1,1,0,0,137.7579,144.27,0.94435,6.512,30,
106,1,2,2,63,0,285.1547,77.1619,137.0661,0,0,0,2,0,0,0,77.1619,100.3554,1.5762,23.1934,10,
106,1,2,2,64,1,197.0842,169.933,47.6953,1,2,3,1,1,0,0,197.0842,199.5927,0.86099,2.5085,40,
106,1,2,2,65,1,47.3388,286.9021,228.4623,3,2,1,3,1,0,0,228.4623,221.354,1.4235,-7.1083,30,
106,1,2,2,66,1,45.9318,319.7526,199.9844,1,2,3,3,0,0,1,199.9844,212.0796,1.2708,12.0952,20,
106,1,2,2,67,1,288.4085,317.6472,79.1872,3,2,1,2,0,1,0,317.6472,NaN,100000,999,0,
106,1,2,2,68,1,139.781,167.5432,196.0515,1,3,2,1,1,0,0,139.781,117.3336,1.2915,-22.4474,10,
106,1,2,2,69,0,168.3628,106.6193,138.1707,0,0,0,3,0,0,0,138.1707,133.5571,1.4721,-4.6136,30,
106,1,2,2,70,0,228.9821,76.543,197.543,0,0,0,3,0,0,0,197.543,212.6912,2.0762,15.1482,20,
106,1,2,2,71,1,228.8666,319.9715,256.5864,1,2,3,1,1,0,0,228.8666,245.0857,1.5346,16.219,20,
106,1,2,2,72,0,315.7351,225.6485,78.3033,0,0,0,2,0,0,0,225.6485,248.4335,2.1734,22.785,10,
106,1,2,2,73,1,16.0743,46.4231,348.4227,2,3,1,2,1,0,0,46.4231,30.6602,1.4721,-15.7629,20,
106,1,2,2,74,0,316.6161,165.7748,79.37,0,0,0,1,0,0,0,316.6161,325.8583,1.4513,9.2422,30,
106,1,2,2,75,1,349.5712,315.4876,19.3216,2,3,1,2,1,0,0,315.4876,320.887,1.4171,5.3993,30,
106,1,2,2,76,1,289.1401,197.774,316.6019,2,1,3,1,0,1,0,289.1401,NaN,100000,999,0,
106,1,2,2,77,1,318.2537,228.0656,288.7594,3,1,2,2,0,0,1,228.0656,216.4217,1.5831,-11.6439,30,
106,1,2,2,78,0,349.0518,288.638,19.0051,0,0,0,3,0,0,0,19.0051,20.4978,1.5484,1.4927,40,
106,1,2,2,79,0,197.5932,318.5043,258.9229,0,0,0,1,0,0,0,197.5932,206.9577,1.1041,9.3645,30,
106,1,2,2,80,0,166.6779,107.3901,136.1192,0,0,0,3,0,0,0,136.1192,129.2214,1.3123,-6.8978,30,
106,1,2,2,81,1,168.0325,79.5655,107.8591,2,3,1,3,0,1,0,107.8591,NaN,100000,999,0,
106,1,2,2,82,0,47.4385,286.522,315.7046,0,0,0,1,0,0,0,47.4385,43.3949,1.2572,-4.0436,30,
106,1,2,2,83,1,227.7914,108.7736,345.4821,3,1,2,2,0,0,1,108.7736,74.818,1.1249,-33.9556,0,
106,1,2,2,84,1,168.4169,315.1683,229.6498,2,3,1,2,1,0,0,315.1683,305.4154,1.6317,-9.7529,30,
106,1,2,2,85,1,49.5929,136.842,287.8145,1,2,3,1,1,0,0,49.5929,49.6292,1.4234,0.03633,40,
106,1,2,2,86,0,198.5571,165.3131,135.3082,0,0,0,1,0,0,0,198.5571,217.6988,1.1249,19.1417,20,
106,1,2,2,87,0,75.3939,198.178,228.081,0,0,0,1,0,0,0,75.3939,58.068,1.5554,-17.3259,20,
106,1,2,2,88,1,257.4894,106.851,138.3061,2,3,1,2,1,0,0,106.851,102.7447,1.1595,-4.1063,30,
106,1,2,2,89,0,169.1381,257.1404,77.5215,0,0,0,3,0,0,0,77.5215,96.2426,1.5831,18.721,20,
106,1,2,2,90,0,346.4828,135.2291,258.9999,0,0,0,1,0,0,0,346.4828,342.5976,1.618,-3.8851,30,
106,1,2,2,91,1,169.8799,317.5524,76.9673,1,3,2,2,0,0,1,317.5524,307.5685,1.3054,-9.984,30,
106,1,2,2,92,0,225.729,345.8152,167.6929,0,0,0,3,0,0,0,167.6929,173.0895,3.3051,5.3967,30,
106,1,2,2,93,1,285.6479,108.0648,139.8173,3,2,1,3,1,0,0,139.8173,161.0144,1.4304,21.1971,10,
106,1,2,2,94,1,255.4049,19.5107,346.2637,2,3,1,2,1,0,0,19.5107,22.9816,1.1735,3.4708,30,
106,1,2,2,95,1,166.5714,349.9771,315.9457,1,3,2,1,1,0,0,166.5714,165.2869,0.86106,-1.2845,40,
106,1,2,2,96,0,227.3712,258.984,165.1243,0,0,0,1,0,0,0,227.3712,266.3784,2.0068,39.0073,0,
106,1,2,2,97,0,286.0524,107.1747,199.6655,0,0,0,2,0,0,0,107.1747,236.0118,1.5628,128.8371,0,
106,1,2,2,98,0,315.5124,45.1071,347.5846,0,0,0,1,0,0,0,315.5124,315.5055,1.6248,-0.0068826,40,
106,1,2,2,99,1,48.4294,349.0523,15.754,1,2,3,1,1,0,0,48.4294,69.4713,2.0831,21.0419,10,
106,1,2,2,100,1,347.0692,136.3647,318.4482,3,1,2,3,1,0,0,318.4482,299.3801,1.0831,-19.0682,20,
106,1,2,2,101,0,289.4533,259.4763,48.9716,0,0,0,1,0,0,0,289.4533,287.5208,1.1596,-1.9325,40,
106,1,2,2,102,0,135.2139,349.3533,79.4392,0,0,0,2,0,0,0,349.3533,108.1977,2.4997,118.8445,0,
106,1,2,2,103,0,195.5347,47.2655,105.9686,0,0,0,1,0,0,0,195.5347,203.8672,0.84715,8.3325,30,
106,1,2,2,104,0,167.5928,47.1268,109.0606,0,0,0,1,0,0,0,167.5928,163.3672,0.96527,-4.2256,30,
106,1,2,2,105,0,49.8763,256.4109,319.8779,0,0,0,3,0,0,0,319.8779,321.2148,0.99989,1.337,40,
106,1,2,2,106,1,109.997,319.404,45.1946,1,3,2,3,0,1,0,45.1946,NaN,100000,999,0,
106,1,2,2,107,1,288.5304,319.2904,76.3491,2,3,1,2,1,0,0,319.2904,284.4025,1.4096,-34.8878,0,
106,1,2,2,108,1,259.2226,16.9048,75.448,2,1,3,2,1,0,0,16.9048,20.3596,1.4859,3.4547,30,
106,1,2,2,109,0,287.3023,107.8037,348.281,0,0,0,3,0,0,0,348.281,347.2909,1.2777,-0.99006,40,
106,1,2,2,110,1,107.3051,76.5081,287.7735,1,3,2,1,1,0,0,107.3051,92.6357,1.3123,-14.6694,20,
106,1,2,2,111,1,287.4029,45.335,195.4102,2,1,3,3,0,0,1,195.4102,190.0409,1.1805,-5.3693,30,
106,1,2,2,112,1,319.2486,49.3263,15.3706,1,2,3,1,1,0,0,319.2486,318.0144,1.5345,-1.2342,40,
106,1,2,2,113,1,47.8205,76.1069,167.9354,3,2,1,2,0,1,0,76.1069,NaN,100000,999,0,
106,1,2,2,114,1,348.0664,286.3547,317.3484,2,1,3,3,0,0,1,317.3484,292.5641,0.68049,-24.7842,10,
106,1,2,2,115,0,77.1119,17.5712,286.6792,0,0,0,1,0,0,0,77.1119,73.7208,1.1041,-3.3911,30,
106,1,2,2,116,0,15.0253,285.8329,109.373,0,0,0,1,0,0,0,15.0253,11.4917,1.2638,-3.5336,30,
106,1,2,2,117,0,49.0875,78.6786,165.791,0,0,0,3,0,0,0,165.791,182.2829,2.0832,16.4919,20,
106,1,2,2,118,1,45.8186,137.9201,229.5456,3,2,1,3,1,0,0,229.5456,201.1607,1.0902,-28.3849,10,
106,1,2,2,119,1,255.7269,226.5693,165.0033,3,2,1,2,0,1,0,226.5693,NaN,100000,999,0,
106,1,2,2,120,0,165.0577,256.1944,317.3095,0,0,0,1,0,0,0,165.0577,165.4578,0.96513,0.40011,40,
106,1,3,1,121,0,45.3671,17.764,257.0834,0,0,0,2,0,0,0,17.764,28.4762,0.73649,10.7123,30,
106,1,3,1,122,1,16.4573,139.8181,285.0819,3,1,2,3,1,0,0,285.0819,293.6478,1.125,8.5658,30,
106,1,3,1,123,0,17.9325,109.415,228.9559,0,0,0,1,0,0,0,17.9325,3.8894,1.2152,-14.0431,20,
106,1,3,1,124,0,288.6023,319.5767,168.6395,0,0,0,3,0,0,0,168.6395,172.1212,2.0067,3.4817,30,
106,1,3,1,125,1,347.3289,138.8727,108.5212,2,3,1,2,1,0,0,138.8727,162.58,1.3124,23.7073,10,
106,1,3,1,126,0,105.0866,288.6947,75.2735,0,0,0,3,0,0,0,75.2735,85.8532,1.7219,10.5797,30,
106,1,3,1,127,1,105.8021,286.8138,136.3881,3,1,2,3,1,0,0,136.3881,147.7129,1.5969,11.3248,30,
106,1,3,1,128,1,105.4642,76.663,288.4675,1,3,2,1,1,0,0,105.4642,98.7511,1.7498,-6.7131,30,
106,1,3,1,129,1,317.8528,16.6178,169.7863,3,1,2,3,1,0,0,169.7863,163.4344,1.3546,-6.3519,30,
106,1,3,1,130,1,46.4508,108.429,226.544,2,1,3,3,0,0,1,226.544,214.2581,1.1873,-12.2858,20,
106,1,3,1,131,1,195.1918,106.3284,46.511,2,3,1,2,1,0,0,106.3284,131.6781,1.2915,25.3497,10,
106,1,3,1,132,1,348.7205,136.6838,169.0068,1,2,3,3,0,0,1,169.0068,164.5757,2.6802,-4.4311,30,
106,1,3,1,133,1,347.2198,78.5229,199.909,3,1,2,3,1,0,0,199.909,198.1229,1.2707,-1.7861,40,
106,1,3,1,134,1,48.0302,79.2868,15.7845,1,3,2,3,0,1,0,15.7845,4.0052,0.95116,-11.7793,30,
106,1,3,1,135,1,316.9259,229.2826,109.6127,2,1,3,1,0,1,0,316.9259,322.1113,1.2429,5.1854,30,
106,1,3,1,136,0,195.0036,317.7327,17.8215,0,0,0,2,0,0,0,317.7327,300.7322,1.0907,-17.0005,20,
106,1,3,1,137,1,19.5432,345.5759,318.7218,3,2,1,1,0,0,1,19.5432,180.7147,0.84025,161.1715,0,
106,1,3,1,138,0,319.6414,49.4647,107.9935,0,0,0,2,0,0,0,49.4647,60.9251,1.4789,11.4605,30,
106,1,3,1,139,0,229.6514,108.0118,258.6449,0,0,0,1,0,0,0,229.6514,215.7028,1.6108,-13.9486,20,
106,1,3,1,140,1,76.912,166.0858,259.2257,3,2,1,3,1,0,0,259.2257,279.9471,1.0069,20.7213,20,
106,1,3,1,141,0,135.0349,15.8694,78.8387,0,0,0,2,0,0,0,15.8694,172.0084,1.6734,156.139,0,
106,1,3,1,142,0,15.2111,75.7878,196.8068,0,0,0,2,0,0,0,75.7878,103.5935,1.1665,27.8057,10,
106,1,3,1,143,0,18.0791,108.991,169.1012,0,0,0,3,0,0,0,169.1012,175.0563,1.2706,5.9551,30,
106,1,3,1,144,1,346.1677,76.0985,286.2963,2,3,1,2,1,0,0,76.0985,76.2854,0.9027,0.1869,40,
106,1,3,1,145,1,199.1113,289.3245,166.6937,3,2,1,1,0,0,1,199.1113,4.0062,1.4582,164.895,0,
106,1,3,1,146,1,16.6498,75.4703,229.1588,3,1,2,3,1,0,0,229.1588,190.4795,1.2221,-38.6793,0,
106,1,3,1,147,1,168.2834,257.6777,45.7402,2,3,1,2,1,0,0,257.6777,247.4924,1.3749,-10.1853,30,
106,1,3,1,148,1,168.7562,316.9016,46.3313,2,3,1,2,1,0,0,316.9016,275.8882,1.4789,-41.0135,0,
106,1,3,1,149,1,286.8301,259.2503,319.7088,3,2,1,3,1,0,0,319.7088,322.4788,0.95817,2.77,40,
106,1,3,1,150,1,169.813,135.4378,16.2783,1,2,3,1,1,0,0,169.813,178.8335,0.79851,9.0205,30,
106,1,3,1,151,0,108.8506,229.1065,285.5739,0,0,0,1,0,0,0,108.8506,97.1708,1.1735,-11.6798,30,
106,1,3,1,152,0,75.7997,227.1086,287.7935,0,0,0,2,0,0,0,227.1086,200.177,1.236,-26.9316,10,
106,1,3,1,153,1,108.4989,226.1455,288.9949,1,2,3,1,1,0,0,108.4989,95.3935,1.0345,-13.1054,20,
106,1,3,1,154,1,229.6674,316.0235,345.2026,3,2,1,1,0,0,1,229.6674,247.7893,1.0416,18.1219,20,
106,1,3,1,155,0,48.8292,318.5057,196.9738,0,0,0,3,0,0,0,196.9738,190.9886,1.1527,-5.9852,30,
106,1,3,1,156,0,316.1095,106.1098,287.2353,0,0,0,3,0,0,0,287.2353,293.5604,1.4096,6.3251,30,
106,1,3,1,157,1,256.1583,226.0451,318.0494,2,1,3,2,1,0,0,226.0451,232.343,1.2777,6.2979,30,
106,1,3,1,158,1,195.7293,168.5903,16.4374,3,1,2,3,1,0,0,16.4374,4.6561,0.84714,-11.7812,30,
106,1,3,1,159,1,168.193,287.4894,229.6082,1,3,2,1,1,0,0,168.193,333.5583,1.229,165.3654,0,
106,1,3,1,160,0,47.1054,79.7742,255.9474,0,0,0,3,0,0,0,255.9474,276.8658,0.86801,20.9184,20,
106,1,3,1,161,1,48.0219,169.9816,255.639,2,1,3,2,1,0,0,169.9816,179.2228,1.2846,9.2412,30,
106,1,3,1,162,0,166.8107,77.7085,105.9141,0,0,0,1,0,0,0,166.8107,162.2066,0.79851,-4.6041,30,
106,1,3,1,163,0,228.2537,199.3408,316.7389,0,0,0,2,0,0,0,199.3408,221.8791,0.95132,22.5383,10,
106,1,3,1,164,1,79.6755,229.2107,168.899,3,2,1,3,1,0,0,168.899,182.357,1.722,13.4581,20,
106,1,3,1,165,0,347.1626,197.4493,315.0263,0,0,0,2,0,0,0,197.4493,213.8853,0.79167,16.4361,20,
106,1,3,1,166,1,76.0121,348.7798,19.7216,1,3,2,1,1,0,0,76.0121,98.4759,0.62499,22.4637,10,
106,1,3,1,167,0,289.4188,199.8567,48.159,0,0,0,3,0,0,0,48.159,69.8348,2.4511,21.6758,10,
106,1,3,1,168,0,75.6025,109.1368,18.7314,0,0,0,2,0,0,0,109.1368,99.1113,0.88176,-10.0255,30,
106,1,3,1,169,0,287.5456,167.9106,135.2279,0,0,0,2,0,0,0,167.9106,129.7119,1.4513,-38.1987,0,
106,1,3,1,170,0,286.6719,319.2714,75.0754,0,0,0,1,0,0,0,286.6719,284.6919,1.0415,-1.9801,40,
106,1,3,1,171,1,77.9545,285.0169,137.4278,1,2,3,2,0,1,0,285.0169,280.9851,1.6247,-4.0319,30,
106,1,3,1,172,0,135.095,345.4361,167.0706,0,0,0,1,0,0,0,135.095,70.7707,0.83329,-64.3244,0,
106,1,3,1,173,1,166.4906,257.6754,225.8735,3,2,1,2,0,1,0,257.6754,253.0971,1.1319,-4.5783,30,
106,1,3,1,174,1,256.8338,198.2257,48.0853,1,3,2,1,1,0,0,256.8338,261.3066,1.3888,4.4729,30,
106,1,3,1,175,0,289.4399,49.5661,318.1183,0,0,0,3,0,0,0,318.1183,214.508,0.96516,-103.6103,0,
106,1,3,1,176,0,227.2282,346.9787,169.8509,0,0,0,3,0,0,0,169.8509,162.2414,1.5206,-7.6095,30,
106,1,3,1,177,1,77.8421,228.6618,317.0498,3,1,2,3,1,0,0,317.0498,162.8363,1.5276,-154.2135,0,
106,1,3,1,178,1,285.3884,256.3126,136.8142,2,3,1,1,0,0,1,285.3884,282.8445,0.74999,-2.544,40,
106,1,3,1,179,1,79.469,45.2906,346.6152,3,2,1,3,1,0,0,346.6152,3.8394,0.95123,17.2243,20,
106,1,3,1,180,1,48.3381,288.757,199.864,2,3,1,2,1,0,0,288.757,243.4243,1.4999,-45.3327,0,
106,1,4,1,181,1,319.1507,49.1096,286.6385,1,3,2,1,1,0,0,319.1507,317.6594,1.0207,-1.4913,40,
106,1,4,1,182,1,286.759,196.8689,348.5008,2,3,1,1,0,0,1,286.759,298.4211,3.3048,11.6621,30,
106,1,4,1,183,0,107.5925,78.6014,139.557,0,0,0,3,0,0,0,139.557,138.8586,1.1388,-0.69835,40,
106,1,4,1,184,1,137.0836,195.1206,76.0009,1,3,2,1,1,0,0,137.0836,130.7844,1.1319,-6.2993,30,
106,1,4,1,185,1,256.5881,78.4429,319.3828,2,1,3,2,1,0,0,78.4429,99.5608,1.4095,21.1179,10,
106,1,4,1,186,1,19.8328,257.5742,289.7055,1,2,3,1,1,0,0,19.8328,22.5701,1.4928,2.7374,40,
106,1,4,1,187,0,319.9218,76.4011,136.1375,0,0,0,1,0,0,0,319.9218,325.1212,1.2567,5.1993,30,
106,1,4,1,188,1,139.8512,228.1325,19.258,3,2,1,3,1,0,0,19.258,14.5991,1.9512,-4.6589,30,
106,1,4,1,189,0,138.0547,289.0306,255.1701,0,0,0,1,0,0,0,138.0547,127.379,1.1665,-10.6757,30,
106,1,4,1,190,1,318.4735,135.2007,108.6708,1,2,3,2,0,1,0,135.2007,147.3018,2.0484,12.1011,20,
106,1,4,1,191,1,285.3241,258.5009,46.5781,3,2,1,2,0,1,0,258.5009,170.506,4.2009,-87.9949,0,
106,1,4,1,192,0,76.3422,47.204,315.4813,0,0,0,1,0,0,0,76.3422,70.6423,1.618,-5.6999,30,
106,1,4,1,193,0,346.8496,19.2383,226.3741,0,0,0,2,0,0,0,19.2383,9.0606,1.4374,-10.1776,30,
106,1,4,1,194,0,319.4716,75.7797,286.5528,0,0,0,1,0,0,0,319.4716,344.8443,2.2012,25.3727,10,
106,1,4,1,195,0,289.7864,195.3463,136.0869,0,0,0,1,0,0,0,289.7864,317.5885,1.4518,27.8021,10,
106,1,4,1,196,1,229.6725,109.8643,315.4473,3,2,1,2,0,1,0,109.8643,103.4882,1.7914,-6.3761,30,
106,1,4,1,197,1,135.4925,258.9661,227.8066,2,3,1,3,0,1,0,227.8066,236.6671,1.3401,8.8604,30,
106,1,4,1,198,1,17.2003,78.8124,195.0438,1,2,3,1,1,0,0,17.2003,359.4915,1.2359,-17.7088,20,
106,1,4,1,199,1,346.0231,47.6184,226.1865,1,3,2,1,1,0,0,346.0231,338.1114,1.3818,-7.9117,30,
106,1,4,1,200,0,196.483,77.1038,346.9809,0,0,0,2,0,0,0,77.1038,116.852,1.3401,39.7482,0,
106,1,4,1,201,0,346.3624,15.2497,315.8265,0,0,0,1,0,0,0,346.3624,357.196,1.0554,10.8336,30,
106,1,4,1,202,1,319.4416,49.9606,256.9191,1,3,2,2,0,0,1,49.9606,43.3887,1.4095,-6.5719,30,
106,1,4,1,203,1,228.6893,259.3661,316.6298,1,3,2,2,0,0,1,259.3661,79.6202,2.3325,-179.7459,0,
106,1,4,1,204,0,167.9542,256.3643,77.3228,0,0,0,1,0,0,0,167.9542,171.7777,0.72216,3.8235,30,
106,1,4,1,205,0,229.2203,169.5079,318.8984,0,0,0,2,0,0,0,169.5079,161.1172,1.111,-8.3907,30,
106,1,4,1,206,0,106.0757,197.289,287.5851,0,0,0,1,0,0,0,106.0757,97.3267,2.3469,-8.749,30,
106,1,4,1,207,0,107.2912,166.3153,255.921,0,0,0,3,0,0,0,255.921,271.3293,0.97207,15.4083,20,
106,1,4,1,208,1,319.5876,289.7294,46.7167,1,3,2,1,1,0,0,319.5876,102.2762,1.0971,142.6886,0,
106,1,4,1,209,0,106.5336,227.3643,318.2923,0,0,0,3,0,0,0,318.2923,326.0259,0.74294,7.7336,30,
106,1,4,1,210,0,76.9959,256.2549,109.9814,0,0,0,1,0,0,0,76.9959,70.442,0.99295,-6.5539,30,
106,1,4,1,211,0,197.7999,227.8285,137.9923,0,0,0,2,0,0,0,227.8285,250.0272,1.3952,22.1987,10,
106,1,4,1,212,0,199.1692,255.3979,227.0045,0,0,0,1,0,0,0,199.1692,49.7698,2.1732,-149.3994,0,
106,1,4,1,213,0,228.6097,315.139,346.3304,0,0,0,2,0,0,0,315.139,325.5932,1.2984,10.4542,30,
106,1,4,1,214,0,48.6644,199.7895,225.6489,0,0,0,1,0,0,0,48.6644,53.3752,1.1388,4.7107,30,
106,1,4,1,215,1,196.5867,229.1823,169.0975,2,3,1,1,0,0,1,196.5867,3.9601,2.09,167.3735,0,
106,1,4,1,216,1,77.4603,166.4598,318.313,2,1,3,2,1,0,0,166.4598,176.7652,1.2151,10.3055,30,
106,1,4,1,217,1,18.9262,348.3209,108.6558,1,2,3,1,1,0,0,18.9262,10.8487,1.5138,-8.0775,30,
106,1,4,1,218,1,259.9226,318.5131,18.7247,3,1,2,3,1,0,0,18.7247,20.9122,1.6115,2.1875,40,
106,1,4,1,219,1,229.3481,77.0349,255.4741,1,3,2,2,0,0,1,77.0349,105.2137,1.2499,28.1788,10,
106,1,4,1,220,1,19.736,317.1793,226.306,3,2,1,3,1,0,0,226.306,217.7732,1.1318,-8.5329,30,
106,1,4,1,221,0,199.1682,228.0939,45.8544,0,0,0,2,0,0,0,228.0939,254.1182,1.8679,26.0243,10,
106,1,4,1,222,1,76.9181,16.5354,107.062,2,1,3,2,1,0,0,16.5354,30.0629,1.0902,13.5275,20,
106,1,4,1,223,1,49.0839,198.551,348.483,2,1,3,3,0,0,1,348.483,159.6081,2.1664,171.1251,0,
106,1,4,1,224,0,109.0532,49.498,289.4304,0,0,0,1,0,0,0,109.0532,103.004,1.1248,-6.0492,30,
106,1,4,1,225,0,15.3977,108.3505,287.6242,0,0,0,2,0,0,0,108.3505,92.1786,1.5414,-16.1719,20,
106,1,4,1,226,1,76.2829,316.1748,346.7998,1,2,3,1,1,0,0,76.2829,94.3194,0.83321,18.0365,20,
106,1,4,1,227,0,347.8015,136.9414,196.5129,0,0,0,3,0,0,0,196.5129,208.9017,1.2152,12.3888,20,
106,1,4,1,228,0,287.5805,198.4848,257.2128,0,0,0,3,0,0,0,257.2128,226.2172,1.0623,-30.9956,0,
106,1,4,1,229,1,76.7487,169.6823,18.6224,3,2,1,3,1,0,0,18.6224,10.3241,1.2637,-8.2984,30,
106,1,4,1,230,1,169.99,197.089,228.8288,2,1,3,3,0,0,1,228.8288,220.2332,1.2984,-8.5956,30,
106,1,4,1,231,1,76.0219,167.5687,197.3586,3,2,1,3,1,0,0,197.3586,202.9749,1.3124,5.6163,30,
106,1,4,1,232,0,107.9681,315.8429,348.3127,0,0,0,1,0,0,0,107.9681,102.7941,1.5484,-5.174,30,
106,1,4,1,233,1,345.8325,48.971,285.3122,2,3,1,2,1,0,0,48.971,85.829,1.056,36.858,0,
106,1,4,1,234,1,286.8011,77.2218,317.1573,2,1,3,2,1,0,0,77.2218,77.3086,0.91598,0.086744,40,
106,1,4,1,235,1,18.2231,169.175,255.2369,1,2,3,1,1,0,0,18.2231,1.1269,1.1874,-17.0962,20,
106,1,4,1,236,0,109.1052,139.1284,346.2755,0,0,0,3,0,0,0,346.2755,334.5545,1.479,-11.721,30,
106,1,4,1,237,1,319.9823,228.0589,345.0925,2,3,1,3,0,1,0,345.0925,340.7889,1.7706,-4.3036,30,
106,1,4,1,238,0,48.3632,226.9539,105.1998,0,0,0,1,0,0,0,48.3632,8.8502,1.0415,-39.5129,0,
106,1,4,1,239,1,259.684,109.4295,19.1805,1,2,3,1,1,0,0,259.684,264.2081,0.93045,4.5242,30,
106,1,4,1,240,1,318.0886,255.7351,105.5371,1,2,3,1,1,0,0,318.0886,329.2209,1.3193,11.1323,30,
106,1,5,1,241,0,135.6957,108.9836,285.6645,0,0,0,1,0,0,0,135.6957,125.8192,1.2429,-9.8766,30,
106,1,5,1,242,0,289.6205,137.0813,16.6098,0,0,0,1,0,0,0,289.6205,280.5647,0.79856,-9.0559,30,
106,1,5,1,243,1,105.6849,17.165,349.2011,2,1,3,1,0,1,0,105.6849,94.4168,0.8819,-11.2682,30,
106,1,5,1,244,0,287.1638,105.1022,225.7924,0,0,0,2,0,0,0,105.1022,147.1594,1.0972,42.0571,0,
106,1,5,1,245,0,227.3488,287.3207,78.052,0,0,0,1,0,0,0,227.3488,271.9669,0.76385,44.6181,0,
106,1,5,1,246,1,288.4321,228.223,105.5927,1,3,2,1,1,0,0,288.4321,290.5823,1.0068,2.1501,40,
106,1,5,1,247,0,167.1625,196.0863,78.5938,0,0,0,2,0,0,0,196.0863,205.2768,0.93038,9.1904,30,
106,1,5,1,248,1,168.065,348.5242,139.2691,1,3,2,1,1,0,0,168.065,348.82,1.0833,-179.2449,0,
106,1,5,1,249,0,166.3544,106.2473,199.6774,0,0,0,2,0,0,0,106.2473,139.5072,1.104,33.2599,0,
106,1,5,1,250,1,19.7248,199.2446,45.5075,3,1,2,1,0,1,0,19.7248,359.2143,1.0618,-20.5106,20,
106,1,5,1,251,1,108.1943,46.5797,165.3894,2,3,1,2,1,0,0,46.5797,66.3522,0.97202,19.7725,20,
106,1,5,1,252,1,18.7609,197.4369,107.1016,3,2,1,1,0,0,1,18.7609,8.3422,1.3331,-10.4187,30,
106,1,5,1,253,1,228.1132,318.3164,348.2657,2,1,3,2,1,0,0,318.3164,322.0795,1.8469,3.7631,30,
106,1,5,1,254,0,76.4339,347.459,197.7996,0,0,0,1,0,0,0,76.4339,67.9492,1.6526,-8.4847,30,
106,1,5,1,255,0,107.0625,165.9279,75.1195,0,0,0,3,0,0,0,75.1195,80.5074,1.4443,5.3879,30,
106,1,5,1,256,1,258.1489,289.1489,346.2885,1,3,2,2,0,0,1,289.1489,293.4186,1.4721,4.2697,30,
106,1,5,1,257,1,316.9612,139.4658,348.3172,1,3,2,1,1,0,0,316.9612,296.622,0.94439,-20.3391,20,
106,1,5,1,258,1,228.6563,79.5999,137.4769,3,1,2,3,1,0,0,137.4769,126.1731,1.2221,-11.3037,30,
106,1,5,1,259,0,79.0563,318.7934,17.1159,0,0,0,2,0,0,0,318.7934,312.3883,0.8819,-6.4052,30,
106,1,5,1,260,1,106.2942,137.8854,167.3378,1,2,3,1,1,0,0,106.2942,82.667,1.104,-23.6272,10,
106,1,5,1,261,0,288.4504,47.585,345.9817,0,0,0,2,0,0,0,47.585,48.8253,0.67363,1.2403,40,
106,1,5,1,262,1,228.8305,49.5527,167.3951,1,2,3,3,0,0,1,167.3951,147.8216,1.5554,-19.5735,20,
106,1,5,1,263,1,195.887,46.9796,287.4608,2,1,3,2,1,0,0,46.9796,48.1975,0.69432,1.2179,40,
106,1,5,1,264,0,259.2475,78.2639,347.5938,0,0,0,2,0,0,0,78.2639,82.8777,1.1041,4.6138,30,
106,1,5,1,265,0,109.2478,46.192,195.5791,0,0,0,2,0,0,0,46.192,51.6935,1.3124,5.5015,30,
106,1,5,1,266,1,108.0933,49.9801,345.0676,2,3,1,2,1,0,0,49.9801,31.3138,1.0485,-18.6663,20,
106,1,5,1,267,1,285.1394,109.4368,229.5828,1,2,3,2,0,1,0,109.4368,116.1806,1.4512,6.7438,30,
106,1,5,1,268,1,166.8407,345.8715,48.8406,2,3,1,2,1,0,0,345.8715,342.0993,0.73607,-3.7722,30,
106,1,5,1,269,1,349.8504,167.6536,46.7037,2,3,1,2,1,0,0,167.6536,159.1844,0.98605,-8.4692,30,
106,1,5,1,270,1,165.1437,316.794,199.3211,1,3,2,2,0,0,1,316.794,326.3524,0.9166,9.5584,30,
106,1,5,1,271,0,106.2118,345.9783,138.4999,0,0,0,2,0,0,0,345.9783,344.7371,1.4442,-1.2412,40,
106,1,5,1,272,1,288.4404,49.9428,135.3017,3,1,2,3,1,0,0,135.3017,148.6001,1.7013,13.2984,20,
106,1,5,1,273,1,347.8252,107.7252,79.8696,1,3,2,1,1,0,0,347.8252,347.9475,1.6595,0.12226,40,
106,1,5,1,274,1,287.0698,139.6229,17.282,3,1,2,2,0,0,1,139.6229,242.7536,1.8193,103.1308,0,
106,1,5,1,275,1,345.8267,49.9573,285.3367,3,1,2,3,1,0,0,285.3367,257.3105,0.66605,-28.0262,10,
106,1,5,1,276,1,346.9718,109.405,316.4648,2,1,3,1,0,1,0,346.9718,6.3014,1.2568,19.3296,20,
106,1,5,1,277,0,319.7698,285.3432,136.7088,0,0,0,3,0,0,0,136.7088,132.8524,1.7568,-3.8564,30,
106,1,5,1,278,0,16.5731,165.8092,255.2115,0,0,0,3,0,0,0,255.2115,254.6033,0.99294,-0.60824,40,
106,1,5,1,279,1,166.3119,135.2038,288.2441,2,3,1,2,1,0,0,135.2038,136.815,1.0831,1.6112,40,
106,1,5,1,280,1,78.2531,198.1727,136.4908,2,1,3,2,1,0,0,198.1727,196.1569,1.4513,-2.0158,40,
106,1,5,1,281,1,318.8216,346.4861,167.4867,3,1,2,3,1,0,0,167.4867,176.0342,1.6735,8.5475,30,
106,1,5,1,282,0,346.244,108.5655,138.6674,0,0,0,1,0,0,0,346.244,357.7033,1.6526,11.4594,30,
106,1,5,1,283,1,75.4637,285.1052,227.6462,3,1,2,1,0,1,0,75.4637,351.0892,1.0138,-84.3745,0,
106,1,5,1,284,0,198.0859,19.0835,138.0043,0,0,0,3,0,0,0,138.0043,131.4389,1.3194,-6.5654,30,
106,1,5,1,285,1,15.477,49.9249,257.1158,2,1,3,2,1,0,0,49.9249,97.5707,1.0624,47.6458,0,
106,1,5,1,286,0,255.1046,287.9587,165.198,0,0,0,3,0,0,0,165.198,160.3644,1.1805,-4.8336,30,
106,1,5,1,287,0,79.3242,349.8035,19.5499,0,0,0,3,0,0,0,19.5499,19.2635,1.229,-0.28631,40,
106,1,5,1,288,1,196.9551,285.5794,46.5419,3,2,1,3,1,0,0,46.5419,40.6321,1.1872,-5.9098,30,
106,1,5,1,289,0,17.8394,139.1235,229.8291,0,0,0,2,0,0,0,139.1235,139.7146,1.1528,0.59106,40,
106,1,5,1,290,0,105.1774,16.1086,49.0408,0,0,0,2,0,0,0,16.1086,8.6317,1.1317,-7.4769,30,
106,1,5,1,291,1,135.911,347.063,255.8389,3,1,2,1,0,1,0,135.911,104.9296,1.2152,-30.9814,0,
106,1,5,1,292,1,347.4942,105.9765,319.8191,1,2,3,3,0,0,1,319.8191,297.3609,1.3888,-22.4582,10,
106,1,5,1,293,1,227.5388,76.9713,316.9141,3,1,2,3,1,0,0,316.9141,317.2899,0.74296,0.37586,40,
106,1,5,1,294,0,227.1475,258.4805,196.0925,0,0,0,2,0,0,0,258.4805,249.1019,1.7081,-9.3786,30,
106,1,5,1,295,1,287.6638,17.7888,198.4672,2,3,1,2,1,0,0,17.7888,17.3598,0.82629,-0.429,40,
106,1,5,1,296,0,347.5182,45.635,286.5259,0,0,0,3,0,0,0,286.5259,290.4398,0.88183,3.9139,30,
106,1,5,1,297,1,47.4659,349.1507,229.5924,2,1,3,1,0,1,0,47.4659,75.6973,1.6803,28.2314,10,
106,1,5,1,298,0,108.3954,138.5708,195.688,0,0,0,3,0,0,0,195.688,193.5456,0.99307,-2.1424,40,
106,1,5,1,299,1,16.6666,197.275,45.042,2,3,1,2,1,0,0,197.275,218.0481,1.3541,20.7731,20,
106,1,5,1,300,1,168.6076,228.1828,49.729,1,2,3,1,1,0,0,168.6076,161.1747,0.56241,-7.4328,30,
106,1,6,1,301,1,349.276,289.6534,318.8978,1,2,3,1,1,0,0,349.276,6.3538,1.1671,17.0777,20,
106,1,6,1,302,1,169.7503,18.0276,79.0528,1,2,3,3,0,0,1,79.0528,75.3292,0.7985,-3.7236,30,
106,1,6,1,303,1,348.8026,255.6956,48.0353,1,3,2,1,1,0,0,348.8026,336.6098,1.5619,-12.1928,20,
106,1,6,1,304,1,79.2567,136.2341,317.157,2,3,1,3,0,1,0,317.157,326.7678,1.104,9.6108,30,
106,1,6,1,305,1,138.6301,77.9276,289.761,1,3,2,1,1,0,0,138.6301,138.2074,1.4235,-0.42271,40,
106,1,6,1,306,0,167.9562,257.4806,347.4647,0,0,0,1,0,0,0,167.9562,150.1576,0.83327,-17.7986,20,
106,1,6,1,307,1,76.1141,315.1313,285.9054,1,3,2,1,1,0,0,76.1141,86.4727,1.0763,10.3587,30,
106,1,6,1,308,1,315.4429,108.7977,345.3481,3,1,2,3,1,0,0,345.3481,346.0888,0.78455,0.74065,40,
106,1,6,1,309,1,319.3995,196.8921,289.1325,1,3,2,3,0,1,0,289.1325,208.5291,2.1178,-80.6034,0,
106,1,6,1,310,1,258.4335,226.7967,286.5474,2,3,1,2,1,0,0,226.7967,243.5281,1.0902,16.7314,20,
106,1,6,1,311,1,17.3162,77.2873,167.9481,3,2,1,3,1,0,0,167.9481,163.7282,1.0769,-4.2199,30,
106,1,6,1,312,1,195.4627,287.4819,106.1432,3,1,2,3,1,0,0,106.1432,96.7086,2.3192,-9.4346,30,
106,1,6,1,313,1,76.5699,17.8829,345.6083,2,1,3,2,1,0,0,17.8829,17.6203,1.4581,-0.26256,40,
106,1,6,1,314,0,138.0818,79.8007,45.1939,0,0,0,1,0,0,0,138.0818,81.6549,1.1664,-56.4269,0,
106,1,6,1,315,1,48.7453,288.6061,17.6153,3,2,1,3,1,0,0,17.6153,359.2456,1.0832,-18.3696,20,
106,1,6,1,316,1,76.7276,135.3013,47.2202,3,1,2,1,0,1,0,76.7276,78.4923,1.1597,1.7647,40,
106,1,6,1,317,1,135.7664,18.2568,105.8025,2,1,3,2,1,0,0,18.2568,5.2254,1.1456,-13.0314,20,
106,1,6,1,318,0,46.8303,76.5296,108.0191,0,0,0,3,0,0,0,108.0191,102.951,1.5902,-5.0681,30,
106,1,6,1,319,0,289.7642,46.6762,258.468,0,0,0,3,0,0,0,258.468,260.9693,1.5276,2.5013,40,
106,1,6,1,320,1,347.7297,168.1533,256.9656,1,2,3,1,1,0,0,347.7297,351.3715,1.7915,3.6418,30,
106,1,6,1,321,0,197.2314,258.9811,49.0688,0,0,0,3,0,0,0,49.0688,66.1652,1.4165,17.0964,20,
106,1,6,1,322,0,166.4604,195.4281,108.228,0,0,0,1,0,0,0,166.4604,351.6523,1.8818,-174.8081,0,
106,1,6,1,323,0,228.4831,319.3725,47.8385,0,0,0,1,0,0,0,228.4831,255.8693,1.0277,27.3862,10,
106,1,6,1,324,0,348.7871,45.0393,106.3275,0,0,0,3,0,0,0,106.3275,92.8515,1.4651,-13.476,20,
106,1,6,1,325,1,45.5714,107.1663,76.4239,3,1,2,2,0,0,1,107.1663,96.5478,1.5901,-10.6185,30,
106,1,6,1,326,1,49.5589,349.7847,196.7966,3,2,1,3,1,0,0,196.7966,184.048,1.2428,-12.7486,20,
106,1,6,1,327,1,348.8138,168.6138,199.2722,2,1,3,2,1,0,0,168.6138,151.2251,0.98593,-17.3886,20,
106,1,6,1,328,0,78.2539,199.2359,106.7295,0,0,0,3,0,0,0,106.7295,117.9234,1.2777,11.1939,30,
106,1,6,1,329,1,76.845,47.1161,17.8572,1,3,2,1,1,0,0,76.845,73.0083,1.0416,-3.8367,30,
106,1,6,1,330,1,256.9032,46.848,228.7657,2,1,3,1,0,1,0,256.9032,254.127,1.368,-2.7762,40,
106,1,6,1,331,0,315.9509,345.0095,49.2889,0,0,0,3,0,0,0,49.2889,66.9802,2.0207,17.6914,20,
106,1,6,1,332,1,49.7089,18.4318,196.6558,3,2,1,2,0,1,0,18.4318,29.7165,1.0971,11.2847,30,
106,1,6,1,333,1,108.3529,316.4577,256.6174,2,1,3,2,1,0,0,316.4577,332.1895,1.2151,15.7318,20,
106,1,6,1,334,1,348.0766,49.1223,287.0703,1,2,3,1,1,0,0,348.0766,342.9297,1.597,-5.1469,30,
106,1,6,1,335,0,317.7201,255.9044,346.3804,0,0,0,2,0,0,0,255.9044,245.243,1.1387,-10.6614,30,
106,1,6,1,336,0,135.7551,227.0511,289.4652,0,0,0,3,0,0,0,289.4652,270.0735,1.2845,-19.3916,20,
106,1,6,1,337,1,108.0557,258.5258,345.1416,3,2,1,3,1,0,0,345.1416,326.5617,0.83318,-18.5799,20,
106,1,6,1,338,0,349.3055,317.223,286.933,0,0,0,1,0,0,0,349.3055,145.6502,1.5137,156.3447,0,
106,1,6,1,339,1,289.2184,139.4593,48.4279,2,1,3,2,1,0,0,139.4593,161.6127,1.0346,22.1535,10,
106,1,6,1,340,1,107.1287,259.3308,167.4032,3,1,2,3,1,0,0,167.4032,172.5031,0.93792,5.0999,30,
106,1,6,1,341,0,259.2239,106.175,47.5414,0,0,0,2,0,0,0,106.175,136.5456,1.652,30.3706,0,
106,1,6,1,342,0,286.65,258.7524,48.9783,0,0,0,3,0,0,0,48.9783,23.3551,1.0415,-25.6231,10,
106,1,6,1,343,0,46.7631,288.5474,17.9435,0,0,0,3,0,0,0,17.9435,13.8263,2.1387,-4.1172,30,
106,1,6,1,344,1,136.7238,19.2851,166.4328,2,1,3,2,1,0,0,19.2851,17.5712,0.91666,-1.7138,40,
106,1,6,1,345,1,169.0589,257.2943,108.3798,1,3,2,3,0,1,0,108.3798,119.9589,1.1874,11.5791,30,
106,1,6,1,346,1,255.9856,166.1645,286.676,3,1,2,2,0,0,1,166.1645,169.0411,0.9304,2.8766,40,
106,1,6,1,347,1,319.7687,198.8048,165.2789,2,3,1,2,1,0,0,198.8048,173.9936,0.89575,-24.8113,10,
106,1,6,1,348,1,109.3766,17.0994,229.6522,3,1,2,3,1,0,0,229.6522,196.5023,0.99987,-33.1499,0,
106,1,6,1,349,0,199.938,258.8847,318.5844,0,0,0,1,0,0,0,199.938,228.2252,0.9791,28.2872,10,
106,1,6,1,350,1,347.053,318.8349,48.9335,1,2,3,3,0,0,1,48.9335,49.5349,1.215,0.60137,40,
106,1,6,1,351,1,195.9885,47.393,79.4445,3,2,1,1,0,0,1,195.9885,219.5149,1.4929,23.5264,10,
106,1,6,1,352,1,167.5783,45.0642,79.143,2,3,1,3,0,1,0,79.143,85.4386,1.3818,6.2956,30,
106,1,6,1,353,1,258.7937,135.4168,197.5637,1,2,3,1,1,0,0,258.7937,263.1847,1.3679,4.391,30,
106,1,6,1,354,0,135.6245,75.2559,258.1976,0,0,0,1,0,0,0,135.6245,98.0945,0.90258,-37.5299,0,
106,1,6,1,355,1,18.7479,107.9057,169.7624,2,3,1,2,1,0,0,107.9057,128.0503,0.97909,20.1445,20,
106,1,6,1,356,0,318.0068,49.3424,199.0784,0,0,0,2,0,0,0,49.3424,46.3378,1.3685,-3.0047,30,
106,1,6,1,357,1,347.3046,136.755,108.0261,3,2,1,3,1,0,0,108.0261,101.179,1.7011,-6.8471,30,
106,1,6,1,358,1,137.5036,257.6435,105.0708,3,2,1,3,1,0,0,105.0708,101.5947,1.6457,-3.4761,30,
106,1,6,1,359,0,15.3835,46.5001,105.5262,0,0,0,2,0,0,0,46.5001,74.5697,1.3818,28.0696,10,
106,1,6,1,360,1,137.304,167.061,199.7356,1,2,3,2,0,1,0,167.061,157.8495,1.7567,-9.2115,30,
106,1,7,2,361,1,198.5388,255.7908,109.8841,1,2,3,3,0,0,1,109.8841,81.2039,1.2076,-28.6802,10,
106,1,7,2,362,1,228.3049,318.7755,107.5883,3,2,1,3,1,0,0,107.5883,118.2963,1.7424,10.708,30,
106,1,7,2,363,1,227.5244,48.3865,319.0119,1,2,3,1,1,0,0,227.5244,239.2137,0.94437,11.6893,30,
106,1,7,2,364,1,47.8729,198.636,229.3965,3,1,2,1,0,1,0,47.8729,NaN,100000,999,0,
106,1,7,2,365,0,226.3707,75.4554,168.3297,0,0,0,2,0,0,0,75.4554,73.3941,1.5969,-2.0614,40,
106,1,7,2,366,1,255.7149,196.3639,49.8544,3,1,2,3,1,0,0,49.8544,55.4938,2.1872,5.6394,30,
106,1,7,2,367,1,225.4717,199.0995,316.8737,3,2,1,3,1,0,0,316.8737,338.503,0.90949,21.6294,10,
106,1,7,2,368,0,165.0584,108.9805,255.9107,0,0,0,1,0,0,0,165.0584,141.5768,1.2707,-23.4817,10,
106,1,7,2,369,1,18.1968,49.1557,318.5436,3,1,2,3,1,0,0,318.5436,320.767,0.86798,2.2234,40,
106,1,7,2,370,0,15.8828,135.3205,228.4285,0,0,0,2,0,0,0,135.3205,127.2969,1.2289,-8.0236,30,
106,1,7,2,371,1,227.3627,15.6079,166.3986,1,2,3,1,1,0,0,227.3627,235.271,0.82627,7.9083,30,
106,1,7,2,372,0,75.834,287.2981,199.5892,0,0,0,3,0,0,0,199.5892,189.0108,0.97916,-10.5784,30,
106,1,7,2,373,1,165.477,288.9474,18.5358,1,2,3,3,0,0,1,18.5358,9.4839,1.9442,-9.0519,30,
106,1,7,2,374,0,229.7738,195.9716,257.3334,0,0,0,2,0,0,0,195.9716,185.4339,0.90269,-10.5377,30,
106,1,7,2,375,0,197.6767,107.8332,75.5793,0,0,0,1,0,0,0,197.6767,245.3769,1.0484,47.7001,0,
106,1,7,2,376,0,199.0995,107.7721,288.9407,0,0,0,3,0,0,0,288.9407,282.6307,1.0832,-6.31,30,
106,1,7,2,377,1,167.3544,108.1335,136.0414,2,3,1,1,0,0,1,167.3544,147.4991,0.75678,-19.8553,20,
106,1,7,2,378,1,136.2911,47.1604,165.1779,2,1,3,2,1,0,0,47.1604,46.7265,0.84017,-0.43386,40,
106,1,7,2,379,1,167.2274,15.1121,78.8827,1,2,3,1,1,0,0,167.2274,160.8573,1.2985,-6.3701,30,
106,1,7,2,380,0,347.0676,316.6174,256.7231,0,0,0,3,0,0,0,256.7231,335.1721,0.95834,78.449,0,
106,1,7,2,381,1,139.2648,79.7287,225.5912,1,2,3,1,1,0,0,139.2648,145.8433,1.0624,6.5785,30,
106,1,7,2,382,1,46.9562,17.8105,349.7842,2,3,1,3,0,1,0,349.7842,NaN,100000,999,0,
106,1,7,2,383,1,349.3938,16.6495,45.9701,2,3,1,2,1,0,0,16.6495,20.331,1.0068,3.6815,30,
106,1,7,2,384,0,345.4379,106.2488,16.3081,0,0,0,1,0,0,0,345.4379,326.6081,1.4026,-18.8298,20,
106,1,7,2,385,1,166.3045,197.6022,15.1703,3,2,1,2,0,1,0,197.6022,NaN,100000,999,0,
106,1,7,2,386,1,196.0469,228.681,257.0305,1,3,2,1,1,0,0,196.0469,197.5593,0.75035,1.5124,40,
106,1,7,2,387,1,319.7509,288.9214,105.3713,3,1,2,3,1,0,0,105.3713,93.5953,1.5693,-11.776,30,
106,1,7,2,388,0,135.5174,286.1066,229.2508,0,0,0,3,0,0,0,229.2508,198.3738,0.90964,-30.8771,0,
106,1,7,2,389,1,195.4797,48.2247,257.4806,2,3,1,2,1,0,0,48.2247,39.4758,0.87479,-8.7489,30,
106,1,7,2,390,1,319.877,258.4904,166.2298,1,2,3,1,1,0,0,319.877,344.0236,1.0207,24.1465,10,
106,1,7,2,391,0,196.8362,165.0846,46.1772,0,0,0,2,0,0,0,165.0846,164.5599,0.84019,-0.52468,40,
106,1,7,2,392,0,78.4084,45.9453,197.3613,0,0,0,3,0,0,0,197.3613,196.2407,1.1249,-1.1206,40,
106,1,7,2,393,1,348.2589,259.4634,197.2511,1,3,2,1,1,0,0,348.2589,351.8548,1.6317,3.5958,30,
106,1,7,2,394,0,287.5291,227.399,348.5527,0,0,0,3,0,0,0,348.5527,338.4403,1.361,-10.1124,30,
106,1,7,2,395,1,347.9773,318.0348,108.2215,2,3,1,2,1,0,0,318.0348,347.256,0.91603,29.2212,10,
106,1,7,2,396,1,48.7538,19.8263,169.3337,3,2,1,2,0,1,0,19.8263,NaN,100000,999,0,
106,1,7,2,397,1,345.4162,45.9876,199.484,1,2,3,1,1,0,0,345.4162,341.3107,1.4165,-4.1055,30,
106,1,7,2,398,0,77.6311,257.6825,318.5624,0,0,0,2,0,0,0,257.6825,257.7459,1.7151,0.06336,40,
106,1,7,2,399,1,106.4033,169.3439,319.0106,2,3,1,1,0,0,1,106.4033,76.1571,1.0485,-30.2462,0,
106,1,7,2,400,1,166.8531,318.2446,137.8389,3,2,1,3,1,0,0,137.8389,109.2021,1.3402,-28.6368,10,
106,1,7,2,401,1,109.0131,46.8789,195.2394,2,1,3,2,1,0,0,46.8789,77.0812,0.90971,30.2023,0,
106,1,7,2,402,1,289.222,165.6705,19.4065,3,2,1,1,0,0,1,289.222,285.6743,1.0831,-3.5478,30,
106,1,7,2,403,1,165.0021,15.0146,79.6285,3,2,1,3,1,0,0,79.6285,84.0072,1.9444,4.3788,30,
106,1,7,2,404,1,17.9009,107.4646,77.7947,1,3,2,2,0,0,1,107.4646,96.0296,3.6801,-11.4351,30,
106,1,7,2,405,1,289.1558,77.0112,137.5159,2,1,3,2,1,0,0,77.0112,82.3342,1.0833,5.323,30,
106,1,7,2,406,1,256.7734,346.949,137.9254,3,1,2,3,1,0,0,137.9254,148.4324,0.98605,10.507,30,
106,1,7,2,407,0,347.2501,138.4776,48.5297,0,0,0,2,0,0,0,138.4776,143.0282,1.1249,4.5506,30,
106,1,7,2,408,0,48.7984,137.736,168.8891,0,0,0,1,0,0,0,48.7984,49.7093,1.3193,0.91085,40,
106,1,7,2,409,0,347.1964,77.6894,255.2459,0,0,0,2,0,0,0,77.6894,89.6151,0.81241,11.9257,30,
106,1,7,2,410,1,319.2934,289.4537,75.7854,2,1,3,1,0,1,0,319.2934,NaN,100000,999,0,
106,1,7,2,411,0,346.4156,258.1117,285.5164,0,0,0,3,0,0,0,285.5164,103.1602,2.034,177.6438,0,
106,1,7,2,412,0,349.3846,168.8403,78.4254,0,0,0,2,0,0,0,168.8403,182.9056,1.2219,14.0653,20,
106,1,7,2,413,1,76.3235,259.4508,225.252,1,2,3,2,0,1,0,259.4508,NaN,100000,999,0,
106,1,7,2,414,0,318.9071,109.8242,346.1235,0,0,0,3,0,0,0,346.1235,355.2756,1.3889,9.1521,30,
106,1,7,2,415,1,345.0028,199.5211,75.7941,1,2,3,3,0,0,1,75.7941,95.3037,1.2221,19.5096,20,
106,1,7,2,416,0,347.0965,108.2064,225.63,0,0,0,2,0,0,0,108.2064,132.3488,0.98591,24.1424,10,
106,1,7,2,417,1,256.8705,108.5109,15.9167,2,1,3,2,1,0,0,108.5109,112.1434,0.83323,3.6325,30,
106,1,7,2,418,1,106.3591,228.5253,48.3932,2,3,1,2,1,0,0,228.5253,221.7741,0.90966,-6.7512,30,
106,1,7,2,419,1,76.4711,285.5173,255.1054,3,1,2,1,0,1,0,76.4711,NaN,100000,999,0,
106,1,7,2,420,1,78.9722,196.8961,319.4619,3,2,1,3,1,0,0,319.4619,337.3038,0.70124,17.8419,20,
106,1,8,2,421,1,346.1694,138.926,199.3548,1,2,3,2,0,1,0,138.926,NaN,100000,999,0,
106,1,8,2,422,1,108.9719,316.758,286.6712,2,1,3,2,1,0,0,316.758,318.6882,1.3471,1.9302,40,
106,1,8,2,423,0,288.9241,345.9003,316.63,0,0,0,2,0,0,0,345.9003,330.4859,0.90956,-15.4144,20,
106,1,8,2,424,1,167.0112,318.2278,48.0535,3,2,1,3,1,0,0,48.0535,73.0159,1.2707,24.9623,10,
106,1,8,2,425,1,19.1508,107.275,197.0279,3,1,2,1,0,1,0,19.1508,NaN,100000,999,0,
106,1,8,2,426,0,317.7142,287.6453,198.7701,0,0,0,2,0,0,0,287.6453,285.1669,1.7221,-2.4785,40,
106,1,8,2,427,1,166.6075,345.8089,138.7094,3,1,2,3,1,0,0,138.7094,119.292,1.472,-19.4173,20,
106,1,8,2,428,1,257.4661,166.7634,108.0595,1,3,2,2,0,0,1,166.7634,130.1524,1.0694,-36.611,0,
106,1,8,2,429,0,46.7664,105.9197,317.8253,0,0,0,3,0,0,0,317.8253,146.2953,1.0416,-171.53,0,
106,1,8,2,430,0,316.2826,226.5869,345.6649,0,0,0,2,0,0,0,226.5869,223.1275,1.3193,-3.4594,30,
106,1,8,2,431,0,318.8858,136.2459,197.6585,0,0,0,2,0,0,0,136.2459,123.1716,0.65272,-13.0743,20,
106,1,8,2,432,0,196.5339,168.3692,15.2808,0,0,0,1,0,0,0,196.5339,222.4027,1.9373,25.8688,10,
106,1,8,2,433,1,255.8013,286.1659,15.8192,1,2,3,1,1,0,0,255.8013,240.5281,0.89577,-15.2731,20,
106,1,8,2,434,1,49.8423,256.4504,195.0787,2,1,3,2,1,0,0,256.4504,261.9909,1.1944,5.5405,30,
106,1,8,2,435,0,168.1037,255.826,346.6466,0,0,0,1,0,0,0,168.1037,164.9228,1.1041,-3.1809,30,
106,1,8,2,436,1,167.0257,319.4432,17.8753,3,1,2,1,0,1,0,167.0257,NaN,100000,999,0,
106,1,8,2,437,0,18.741,228.124,108.6405,0,0,0,2,0,0,0,228.124,242.9514,0.95129,14.8274,20,
106,1,8,2,438,0,317.32,168.8455,256.6747,0,0,0,2,0,0,0,168.8455,166.225,1.2708,-2.6205,40,
106,1,8,2,439,0,255.6531,106.225,19.3318,0,0,0,1,0,0,0,255.6531,260.833,1.2845,5.1799,30,
106,1,8,2,440,1,259.9968,49.8928,18.8239,1,3,2,1,1,0,0,259.9968,252.6875,1.0624,-7.3094,30,
106,1,8,2,441,1,225.2548,346.4091,15.6676,2,3,1,3,0,1,0,15.6676,NaN,100000,999,0,
106,1,8,2,442,0,106.3592,135.8795,348.878,0,0,0,1,0,0,0,106.3592,265.252,0.94427,158.8928,0,
106,1,8,2,443,0,17.0797,198.9739,349.3836,0,0,0,3,0,0,0,349.3836,350.0525,1.5345,0.66888,40,
106,1,8,2,444,1,229.0337,77.2781,107.936,3,1,2,3,1,0,0,107.936,114.8526,1.4791,6.9166,30,
106,1,8,2,445,1,345.4404,139.5373,196.9928,3,2,1,1,0,0,1,345.4404,345.2409,0.9861,-0.19949,40,
106,1,8,2,446,1,16.3998,288.0065,256.3468,3,1,2,3,1,0,0,256.3468,256.3195,1.4234,-0.027293,40,
106,1,8,2,447,0,257.2917,136.6432,169.9564,0,0,0,1,0,0,0,257.2917,284.3489,1.0832,27.0571,10,
106,1,8,2,448,0,346.9137,48.6526,108.7309,0,0,0,2,0,0,0,48.6526,41.4766,1.368,-7.176,30,
106,1,8,2,449,1,195.6123,315.7137,16.8821,2,3,1,1,0,0,1,195.6123,264.3042,0.92354,68.6919,0,
106,1,8,2,450,0,259.9911,109.775,347.5666,0,0,0,3,0,0,0,347.5666,346.6538,0.92347,-0.91282,40,
106,1,8,2,451,1,48.9206,255.8028,195.7729,3,1,2,3,1,0,0,195.7729,211.0314,0.81936,15.2586,20,
106,1,8,2,452,0,229.5021,285.9138,79.6101,0,0,0,1,0,0,0,229.5021,240.5031,0.70819,11.001,30,
106,1,8,2,453,1,46.9212,109.2804,16.7781,2,1,3,2,1,0,0,109.2804,86.0323,0.89518,-23.2481,10,
106,1,8,2,454,1,285.5753,137.4622,167.1664,1,3,2,1,1,0,0,285.5753,343.4091,0.93045,57.8338,0,
106,1,8,2,455,1,225.7687,107.1047,345.2205,3,2,1,3,1,0,0,345.2205,335.2615,0.8333,-9.959,30,
106,1,8,2,456,1,259.544,198.8611,345.6215,2,3,1,3,0,1,0,345.6215,NaN,100000,999,0,
106,1,8,2,457,1,259.1287,317.8346,47.8808,3,1,2,3,1,0,0,47.8808,67.8876,1.0556,20.0068,20,
106,1,8,2,458,1,345.2443,139.0659,256.0072,1,3,2,1,1,0,0,345.2443,355.0462,0.90277,9.8019,30,
106,1,8,2,459,0,75.6716,225.2684,316.0299,0,0,0,2,0,0,0,225.2684,262.8047,0.99295,37.5362,0,
106,1,8,2,460,0,318.9342,79.1196,16.9142,0,0,0,1,0,0,0,318.9342,339.751,0.882,20.8168,20,
106,1,8,2,461,0,137.6481,259.4322,199.0779,0,0,0,3,0,0,0,199.0779,182.0529,1.1527,-17.025,20,
106,1,8,2,462,0,285.2241,46.6735,79.0129,0,0,0,3,0,0,0,79.0129,83.6836,1.7498,4.6707,30,
106,1,8,2,463,1,257.1099,198.1514,285.1967,3,1,2,3,1,0,0,285.1967,264.3852,1.0277,-20.8115,20,
106,1,8,2,464,0,345.5319,225.4823,316.9794,0,0,0,2,0,0,0,225.4823,230.531,1.4998,5.0487,30,
106,1,8,2,465,0,225.1487,349.2081,288.7696,0,0,0,3,0,0,0,288.7696,294.1429,1.1943,5.3733,30,
106,1,8,2,466,0,139.8569,76.621,16.013,0,0,0,2,0,0,0,76.621,68.3874,0.88183,-8.2336,30,
106,1,8,2,467,0,256.5495,196.6591,345.933,0,0,0,2,0,0,0,196.6591,77.3086,1.2707,-119.3505,0,
106,1,8,2,468,1,137.3453,345.5207,76.8608,1,3,2,1,1,0,0,137.3453,122.7674,1.0415,-14.5779,20,
106,1,8,2,469,1,198.1184,15.3786,256.4987,1,3,2,1,1,0,0,198.1184,196.128,1.0693,-1.9904,40,
106,1,8,2,470,1,319.5611,197.8195,168.9727,1,2,3,1,1,0,0,319.5611,329.3901,1.2087,9.829,30,
106,1,8,2,471,1,287.9795,199.0172,76.1351,1,2,3,1,1,0,0,287.9795,311.5089,0.84016,23.5294,10,
106,1,8,2,472,1,166.389,315.5156,75.9487,1,3,2,1,1,0,0,166.389,155.0531,0.99296,-11.336,30,
106,1,8,2,473,1,196.2629,17.998,166.2065,3,2,1,3,1,0,0,166.2065,159.9219,1.3956,-6.2845,30,
106,1,8,2,474,1,319.9973,78.3677,197.7492,2,1,3,3,0,0,1,197.7492,189.4214,1.2984,-8.3278,30,
106,1,8,2,475,1,346.695,318.6023,139.507,3,2,1,3,1,0,0,139.507,125.185,1.1735,-14.322,20,
106,1,8,2,476,0,318.3723,49.6626,259.9424,0,0,0,1,0,0,0,318.3723,359.6319,1.3053,41.2596,0,
106,1,8,2,477,0,49.9161,226.8259,76.3773,0,0,0,3,0,0,0,76.3773,71.6799,1.3817,-4.6974,30,
106,1,8,2,478,1,165.5087,227.7993,255.6139,1,3,2,3,0,1,0,255.6139,NaN,100000,999,0,
106,1,8,2,479,0,75.9708,259.7944,19.7697,0,0,0,2,0,0,0,259.7944,258.1588,1.3948,-1.6356,40,
106,1,8,2,480,0,347.2661,46.5168,135.6348,0,0,0,1,0,0,0,347.2661,339.9844,1.5832,-7.2817,30,
