Subject,Session,Block,Condition,Trial,whetherCued,leftStim,rightStim,midStim,remCueLoc,fogCueLoc,neutralCueLoc,probeCueLoc,probeRem,probeForget,probeNeutral,Target,Estimate,RT,Error,Points
102,1,1,2,1,0,285.3167,75.3195,349.6993,0,0,0,3,0,0,0,349.6993,18.7772,2.0271,29.0779,10,
102,1,1,2,2,1,317.7602,47.7922,225.3341,1,2,3,2,0,1,0,47.7922,NaN,100000,999,0,
102,1,1,2,3,0,345.9818,317.6386,285.7384,0,0,0,3,0,0,0,285.7384,5.0666,2.5971,79.3282,0,
102,1,1,2,4,0,15.6096,196.4513,135.3117,0,0,0,2,0,0,0,196.4513,230.7709,1.6801,34.3196,0,
102,1,1,2,5,1,46.0894,18.765,77.5992,2,1,3,2,1,0,0,18.765,11.5377,1.1944,-7.2273,30,
102,1,1,2,6,1,136.9584,228.1068,79.8258,1,3,2,1,1,0,0,136.9584,113.5754,2.0554,-23.383,10,
102,1,1,2,7,1,289.1912,319.5068,107.2497,3,2,1,3,1,0,0,107.2497,38.3582,1.354,-68.8915,0,
102,1,1,2,8,0,49.572,257.4728,198.5512,0,0,0,2,0,0,0,257.4728,252.8801,1.6596,-4.5927,30,
102,1,1,2,9,1,165.1693,347.2055,255.6489,2,3,1,2,1,0,0,347.2055,343.5292,1.236,-3.6763,30,
102,1,1,2,10,1,228.007,199.7351,258.1561,3,1,2,2,0,0,1,199.7351,127.0524,2.0898,-72.6827,0,
102,1,1,2,11,0,47.5178,139.5352,315.6181,0,0,0,2,0,0,0,139.5352,8.9484,2.3259,-130.5868,0,
102,1,1,2,12,1,48.1707,168.8863,199.4925,2,1,3,2,1,0,0,168.8863,161.9678,1.5831,-6.9186,30,
102,1,1,2,13,1,45.8059,17.0895,196.8453,1,3,2,2,0,0,1,17.0895,35.4986,2.6316,18.409,20,
102,1,1,2,14,1,226.5243,18.8994,167.4361,3,2,1,2,0,1,0,18.8994,NaN,100000,999,0,
102,1,1,2,15,0,107.2871,288.6659,137.7912,0,0,0,3,0,0,0,137.7912,123.0493,1.8679,-14.7419,20,
102,1,1,2,16,0,345.9916,285.1034,258.9614,0,0,0,1,0,0,0,345.9916,76.8241,1.8954,90.8325,0,
102,1,1,2,17,0,17.4427,165.3267,137.2849,0,0,0,3,0,0,0,137.2849,125.6046,1.2429,-11.6803,30,
102,1,1,2,18,1,225.5959,45.6461,285.3898,1,3,2,1,1,0,0,225.5959,237.2123,1.2846,11.6164,30,
102,1,1,2,19,1,345.5065,167.3447,108.5532,3,1,2,3,1,0,0,108.5532,35.1476,0.93741,-73.4056,0,
102,1,1,2,20,0,195.0114,49.7227,228.9624,0,0,0,1,0,0,0,195.0114,215.1649,1.4927,20.1535,20,
102,1,1,2,21,1,318.2166,139.1068,106.8927,2,1,3,3,0,0,1,106.8927,233.3805,1.472,126.4878,0,
102,1,1,2,22,1,18.1388,289.0957,195.9448,3,2,1,2,0,1,0,289.0957,NaN,100000,999,0,
102,1,1,2,23,1,229.4223,166.7051,346.0256,2,1,3,3,0,0,1,346.0256,177.7597,1.4165,-168.2659,0,
102,1,1,2,24,1,49.0602,75.163,347.0752,1,2,3,1,1,0,0,49.0602,68.4032,1.1596,19.343,20,
102,1,1,2,25,0,346.1367,139.5344,49.3449,0,0,0,2,0,0,0,139.5344,140.7808,2.291,1.2464,40,
102,1,1,2,26,1,77.8374,108.2883,348.4279,1,3,2,1,1,0,0,77.8374,60.7539,1.4582,-17.0835,20,
102,1,1,2,27,0,77.0033,256.8647,17.2163,0,0,0,1,0,0,0,77.0033,63.5478,1.2219,-13.4555,20,
102,1,1,2,28,1,288.4182,45.772,199.8716,2,3,1,2,1,0,0,45.772,349.8264,1.0416,-55.9456,0,
102,1,1,2,29,1,255.4666,286.0334,316.5138,2,1,3,2,1,0,0,286.0334,321.8666,1.0624,35.8332,0,
102,1,1,2,30,1,167.4432,225.3904,107.6503,3,1,2,1,0,1,0,167.4432,NaN,100000,999,0,
102,1,1,2,31,1,348.6538,109.5044,167.3202,2,3,1,2,1,0,0,109.5044,109.2325,1.3262,-0.27192,40,
102,1,1,2,32,1,255.7227,348.6468,197.4114,1,2,3,1,1,0,0,255.7227,249.2427,1.3749,-6.4799,30,
102,1,1,2,33,1,106.2995,48.3854,347.5991,2,1,3,2,1,0,0,48.3854,20.8954,0.96518,-27.49,10,
102,1,1,2,34,0,48.8653,16.9624,78.0265,0,0,0,2,0,0,0,16.9624,36.9656,1.0902,20.0032,20,
102,1,1,2,35,0,75.5347,288.3139,139.7729,0,0,0,3,0,0,0,139.7729,128.1535,1.8193,-11.6194,30,
102,1,1,2,36,1,229.6057,109.4654,319.9859,3,2,1,3,1,0,0,319.9859,153.6136,1.3262,-166.3722,0,
102,1,1,2,37,0,259.233,18.9726,109.5014,0,0,0,3,0,0,0,109.5014,125.5167,1.5206,16.0153,20,
102,1,1,2,38,1,256.0912,315.4982,168.0975,3,2,1,3,1,0,0,168.0975,148.903,0.91628,-19.1945,20,
102,1,1,2,39,1,165.5577,17.8966,139.3519,3,2,1,3,1,0,0,139.3519,145.3575,1.4096,6.0056,30,
102,1,1,2,40,0,139.5455,346.0382,196.9103,0,0,0,3,0,0,0,196.9103,212.202,1.3404,15.2917,20,
102,1,1,2,41,1,226.8033,199.4036,348.7218,2,1,3,2,1,0,0,199.4036,354.4792,1.1736,155.0756,0,
102,1,1,2,42,1,258.5107,76.1986,169.7974,3,2,1,3,1,0,0,169.7974,189.1067,1.3544,19.3093,20,
102,1,1,2,43,1,46.1226,316.3501,257.0922,1,3,2,3,0,1,0,257.0922,NaN,100000,999,0,
102,1,1,2,44,1,138.3904,287.1424,258.274,3,1,2,3,1,0,0,258.274,220.2796,1.0416,-37.9944,0,
102,1,1,2,45,1,286.8174,107.1734,348.438,2,1,3,2,1,0,0,107.1734,121.4807,1.229,14.3073,20,
102,1,1,2,46,1,15.6333,107.5663,138.5797,3,2,1,3,1,0,0,138.5797,31.3204,1.0346,-107.2593,0,
102,1,1,2,47,1,257.6019,319.4264,18.2413,3,2,1,3,1,0,0,18.2413,18.6256,1.0832,0.38433,40,
102,1,1,2,48,1,46.4256,137.6475,317.7992,2,1,3,2,1,0,0,137.6475,134.7288,1.5694,-2.9188,40,
102,1,1,2,49,1,348.2232,319.9007,165.5086,1,3,2,1,1,0,0,348.2232,298.4113,1.8537,-49.812,0,
102,1,1,2,50,1,49.2794,288.072,15.5871,2,3,1,2,1,0,0,288.072,315.514,1.5068,27.442,10,
102,1,1,2,51,0,315.4042,227.0562,48.5632,0,0,0,3,0,0,0,48.5632,38.5495,1.354,-10.0137,30,
102,1,1,2,52,1,258.014,17.9574,166.1263,3,2,1,3,1,0,0,166.1263,176.0863,1.2775,9.96,30,
102,1,1,2,53,1,46.9871,225.5229,135.9693,2,3,1,2,1,0,0,225.5229,221.202,2.5414,-4.3209,30,
102,1,1,2,54,1,316.1599,105.8405,255.1336,3,1,2,3,1,0,0,255.1336,237.7687,1.1805,-17.3649,20,
102,1,1,2,55,1,137.1783,255.6832,346.4986,3,1,2,1,0,1,0,137.1783,NaN,100000,999,0,
102,1,1,2,56,1,226.1171,48.3665,259.0939,3,1,2,1,0,1,0,226.1171,NaN,100000,999,0,
102,1,1,2,57,1,167.0201,195.2052,76.4691,2,1,3,2,1,0,0,195.2052,206.7237,1.4443,11.5186,30,
102,1,1,2,58,0,17.6756,106.6678,139.2734,0,0,0,2,0,0,0,106.6678,125.1389,1.2637,18.4711,20,
102,1,1,2,59,1,168.6383,19.2866,139.9592,1,3,2,1,1,0,0,168.6383,141.8276,1.0833,-26.8108,10,
102,1,1,2,60,0,109.1686,49.0772,256.6198,0,0,0,3,0,0,0,256.6198,227.5649,1.3891,-29.0548,10,
102,1,2,2,61,0,135.2687,168.1844,109.8019,0,0,0,1,0,0,0,135.2687,52.0168,1.4999,-83.2519,0,
102,1,2,2,62,0,198.5914,169.7232,105.4389,0,0,0,2,0,0,0,169.7232,234.5704,1.2705,64.8471,0,
102,1,2,2,63,1,166.5304,259.8329,315.6497,2,1,3,2,1,0,0,259.8329,312.2431,1.0625,52.4102,0,
102,1,2,2,64,1,348.519,288.9045,17.8242,2,3,1,3,0,1,0,17.8242,NaN,100000,999,0,
102,1,2,2,65,1,47.4122,17.1561,228.4941,2,1,3,2,1,0,0,17.1561,11.6508,1.3889,-5.5053,30,
102,1,2,2,66,1,48.834,319.4916,78.8341,1,3,2,1,1,0,0,48.834,70.4945,0.868,21.6606,10,
102,1,2,2,67,0,259.652,137.2348,49.1694,0,0,0,1,0,0,0,259.652,235.9086,1.1941,-23.7434,10,
102,1,2,2,68,1,77.4526,227.0373,345.4197,2,1,3,1,0,1,0,77.4526,NaN,100000,999,0,
102,1,2,2,69,0,107.4171,288.4239,317.4001,0,0,0,2,0,0,0,288.4239,246.5506,1.7359,-41.8733,0,
102,1,2,2,70,1,106.8887,256.3605,45.6265,2,1,3,2,1,0,0,256.3605,254.1576,1.4373,-2.2028,40,
102,1,2,2,71,1,76.054,256.3269,109.9659,2,3,1,3,0,1,0,109.9659,NaN,100000,999,0,
102,1,2,2,72,0,256.552,16.7177,75.3811,0,0,0,2,0,0,0,16.7177,28.7419,1.222,12.0241,20,
102,1,2,2,73,0,107.8588,347.9646,138.4931,0,0,0,2,0,0,0,347.9646,31.8697,1.4443,43.9051,0,
102,1,2,2,74,0,137.135,109.5651,19.4866,0,0,0,1,0,0,0,137.135,113.1237,1.3054,-24.0113,10,
102,1,2,2,75,1,286.221,47.191,168.6755,3,2,1,3,1,0,0,168.6755,190.5669,1.7984,21.8914,10,
102,1,2,2,76,1,318.3402,105.7629,255.3135,1,3,2,1,1,0,0,318.3402,297.8425,1.6794,-20.4977,20,
102,1,2,2,77,1,106.6075,289.4992,167.7106,3,1,2,1,0,1,0,106.6075,NaN,100000,999,0,
102,1,2,2,78,1,316.3664,228.7335,77.4394,3,1,2,3,1,0,0,77.4394,60.1908,1.0833,-17.2486,20,
102,1,2,2,79,0,108.9941,167.0244,137.4118,0,0,0,1,0,0,0,108.9941,104.2582,1.4026,-4.7359,30,
102,1,2,2,80,1,228.6191,18.284,77.5739,3,1,2,2,0,0,1,18.284,67.2222,1.472,48.9382,0,
102,1,2,2,81,0,349.2665,317.3364,49.1836,0,0,0,1,0,0,0,349.2665,358.276,1.7361,9.0095,30,
102,1,2,2,82,0,317.5743,19.9949,76.8866,0,0,0,2,0,0,0,19.9949,30.7488,1.5693,10.7539,30,
102,1,2,2,83,0,106.4416,15.825,77.2793,0,0,0,1,0,0,0,106.4416,112.8111,1.2915,6.3696,30,
102,1,2,2,84,0,46.3343,225.3428,16.568,0,0,0,3,0,0,0,16.568,33.364,1.9373,16.796,20,
102,1,2,2,85,1,106.3698,138.2755,77.0353,2,3,1,1,0,0,1,106.3698,10.4671,2.1387,-95.9027,0,
102,1,2,2,86,1,229.4564,256.0814,18.4177,2,3,1,2,1,0,0,256.0814,307.8832,1.2499,51.8017,0,
102,1,2,2,87,0,47.0084,136.669,256.3379,0,0,0,3,0,0,0,256.3379,55.1767,1.111,158.8388,0,
102,1,2,2,88,1,165.9694,259.0404,49.9282,1,3,2,1,1,0,0,165.9694,126.1714,1.2637,-39.798,0,
102,1,2,2,89,1,286.3771,227.098,17.985,2,1,3,2,1,0,0,227.098,174.3638,1.0762,-52.7342,0,
102,1,2,2,90,1,165.3123,15.8923,106.6913,1,3,2,1,1,0,0,165.3123,136.0112,1.4027,-29.3012,10,
102,1,2,2,91,1,47.5111,168.683,225.5606,2,3,1,2,1,0,0,168.683,147.9095,1.2291,-20.7735,20,
102,1,2,2,92,1,76.4371,229.5997,165.0303,2,1,3,2,1,0,0,229.5997,226.1147,1.59,-3.485,30,
102,1,2,2,93,1,105.6268,287.1495,255.0818,3,2,1,1,0,0,1,105.6268,112.7949,1.722,7.1681,30,
102,1,2,2,94,0,226.0151,18.975,199.8729,0,0,0,3,0,0,0,199.8729,53.8489,1.0416,-146.0239,0,
102,1,2,2,95,0,257.4089,287.2294,198.9909,0,0,0,3,0,0,0,198.9909,198.5552,2.2847,-0.43569,40,
102,1,2,2,96,0,345.3147,139.6001,199.5308,0,0,0,2,0,0,0,139.6001,106.0649,1.0138,-33.5352,0,
102,1,2,2,97,0,257.2098,349.198,168.0913,0,0,0,2,0,0,0,349.198,110.7114,0.90239,121.5134,0,
102,1,2,2,98,0,285.0765,318.7534,75.3106,0,0,0,1,0,0,0,285.0765,290.9109,1.5277,5.8344,30,
102,1,2,2,99,1,196.6344,135.5152,166.8521,3,2,1,1,0,0,1,196.6344,69.749,1.8609,-126.8854,0,
102,1,2,2,100,0,256.9666,17.1023,225.6856,0,0,0,3,0,0,0,225.6856,214.6744,1.4443,-11.0112,30,
102,1,2,2,101,1,48.808,348.2557,16.7554,2,1,3,2,1,0,0,348.2557,11.0611,0.90268,22.8053,10,
102,1,2,2,102,0,196.7117,317.8315,258.2726,0,0,0,1,0,0,0,196.7117,192.0951,1.1874,-4.6166,30,
102,1,2,2,103,1,109.5259,166.3226,229.7491,1,3,2,2,0,0,1,166.3226,162.3649,1.9164,-3.9577,30,
102,1,2,2,104,1,49.6735,226.8027,199.7386,3,1,2,3,1,0,0,199.7386,210.0301,2.2707,10.2915,30,
102,1,2,2,105,1,17.5412,259.2672,48.419,1,2,3,1,1,0,0,17.5412,25.0879,1.7706,7.5467,30,
102,1,2,2,106,1,76.3878,165.5043,317.4946,3,1,2,3,1,0,0,317.4946,0.55751,0.81244,43.0629,0,
102,1,2,2,107,1,317.5248,288.6106,258.8055,1,3,2,1,1,0,0,317.5248,317.227,1.5206,-0.29779,40,
102,1,2,2,108,0,225.586,76.8997,48.8242,0,0,0,3,0,0,0,48.8242,35.6428,1.5555,-13.1814,20,
102,1,2,2,109,0,105.5768,227.506,289.0846,0,0,0,2,0,0,0,227.506,33.9727,2.6314,166.4667,0,
102,1,2,2,110,1,77.625,287.6556,349.3669,2,1,3,1,0,1,0,77.625,NaN,100000,999,0,
102,1,2,2,111,1,48.7756,137.6306,169.2506,2,3,1,2,1,0,0,137.6306,139.3503,1.2012,1.7197,40,
102,1,2,2,112,1,196.7002,228.3195,48.6368,2,3,1,2,1,0,0,228.3195,123.4254,1.0207,-104.8941,0,
102,1,2,2,113,0,15.5643,198.2512,75.9544,0,0,0,1,0,0,0,15.5643,22.8947,1.2704,7.3303,30,
102,1,2,2,114,1,228.9358,345.9675,77.6546,2,3,1,3,0,1,0,77.6546,NaN,100000,999,0,
102,1,2,2,115,1,258.7655,168.5152,106.2331,1,3,2,1,1,0,0,258.7655,259.1834,1.0346,0.41785,40,
102,1,2,2,116,1,15.5148,79.4181,107.6112,1,2,3,1,1,0,0,15.5148,260.3337,1.3122,-115.1812,0,
102,1,2,2,117,1,109.1522,198.3681,315.6973,3,1,2,1,0,1,0,109.1522,NaN,100000,999,0,
102,1,2,2,118,1,256.5109,226.4726,136.2991,3,2,1,2,0,1,0,226.4726,NaN,100000,999,0,
102,1,2,2,119,1,285.2877,135.1063,76.449,1,2,3,1,1,0,0,285.2877,292.8269,1.3124,7.5392,30,
102,1,2,2,120,0,346.9215,226.6007,256.9667,0,0,0,3,0,0,0,256.9667,247.0798,1.1596,-9.887,30,
102,1,3,1,121,1,259.1155,19.3721,79.9918,2,3,1,2,1,0,0,19.3721,207.3615,1.111,-172.0106,0,
102,1,3,1,122,0,228.6716,19.9273,318.4939,0,0,0,2,0,0,0,19.9273,3.7144,1.0554,-16.2129,20,
102,1,3,1,123,1,16.7771,137.1919,319.5439,3,1,2,1,0,1,0,16.7771,37.0749,1.4096,20.2978,20,
102,1,3,1,124,1,196.9012,286.0929,108.6133,1,2,3,1,1,0,0,196.9012,76.8452,0.64618,-120.056,0,
102,1,3,1,125,1,195.0869,317.356,255.2304,3,1,2,3,1,0,0,255.2304,244.2775,0.89537,-10.9529,30,
102,1,3,1,126,1,137.7151,286.7856,48.308,1,2,3,1,1,0,0,137.7151,128.7364,0.93744,-8.9787,30,
102,1,3,1,127,0,46.9945,226.2444,289.6767,0,0,0,1,0,0,0,46.9945,39.2462,0.95129,-7.7483,30,
102,1,3,1,128,1,168.1491,257.3251,135.5459,2,1,3,2,1,0,0,257.3251,238.5622,1.2082,-18.7629,20,
102,1,3,1,129,0,289.1691,198.0293,47.5896,0,0,0,3,0,0,0,47.5896,34.1822,1.111,-13.4074,20,
102,1,3,1,130,0,285.1747,348.8566,257.7026,0,0,0,3,0,0,0,257.7026,31.4676,1.0346,133.765,0,
102,1,3,1,131,1,199.1453,256.9438,225.8421,2,3,1,3,0,1,0,225.8421,36.6909,1.5139,170.8488,0,
102,1,3,1,132,1,317.7223,195.411,107.9906,3,2,1,3,1,0,0,107.9906,86.8115,1.0554,-21.1791,10,
102,1,3,1,133,1,18.1363,286.0297,259.9009,1,2,3,1,1,0,0,18.1363,61.641,0.76386,43.5048,0,
102,1,3,1,134,1,136.3179,105.8739,316.8431,2,1,3,2,1,0,0,105.8739,327.4926,1.1113,-138.3813,0,
102,1,3,1,135,1,136.8066,257.35,315.2939,3,2,1,2,0,1,0,257.35,261.4752,1.7083,4.1252,30,
102,1,3,1,136,1,135.5589,287.4592,77.3078,2,3,1,1,0,0,1,135.5589,312.2055,1.5203,176.6465,0,
102,1,3,1,137,0,77.4983,227.9224,259.6238,0,0,0,1,0,0,0,77.4983,123.8971,1.3193,46.3988,0,
102,1,3,1,138,1,135.4817,15.6564,288.0495,2,1,3,2,1,0,0,15.6564,30.1909,0.92361,14.5345,20,
102,1,3,1,139,0,165.5533,138.2034,195.3601,0,0,0,1,0,0,0,165.5533,166.9109,0.72897,1.3576,40,
102,1,3,1,140,1,226.3889,105.4855,258.9141,1,3,2,1,1,0,0,226.3889,211.7731,0.93738,-14.6157,20,
102,1,3,1,141,1,316.1998,229.638,138.8149,2,3,1,1,0,0,1,316.1998,311.3246,1.4722,-4.8752,30,
102,1,3,1,142,0,228.7839,289.0142,349.0156,0,0,0,2,0,0,0,289.0142,314.8356,1.4721,25.8214,10,
102,1,3,1,143,0,47.9719,285.7687,315.3131,0,0,0,1,0,0,0,47.9719,49.4155,1.319,1.4436,40,
102,1,3,1,144,1,15.9456,345.3543,285.1893,3,1,2,3,1,0,0,285.1893,302.1917,0.85408,17.0024,20,
102,1,3,1,145,0,257.1512,169.3563,318.5363,0,0,0,3,0,0,0,318.5363,335.2239,0.81937,16.6877,20,
102,1,3,1,146,1,15.2378,49.0018,227.3339,2,1,3,1,0,1,0,15.2378,289.4142,1.2152,-85.8236,0,
102,1,3,1,147,1,316.2021,46.0129,226.7411,1,3,2,1,1,0,0,316.2021,303.5081,1.4027,-12.694,20,
102,1,3,1,148,1,45.168,78.0781,195.5609,2,1,3,3,0,0,1,195.5609,12.1027,0.90963,176.5418,0,
102,1,3,1,149,1,79.0614,18.3341,46.9089,1,2,3,2,0,1,0,18.3341,215.9463,1.9164,-162.3878,0,
102,1,3,1,150,0,75.1898,319.612,256.8657,0,0,0,3,0,0,0,256.8657,241.3958,1.3125,-15.4699,20,
102,1,3,1,151,0,105.108,136.7051,196.922,0,0,0,1,0,0,0,105.108,104.848,1.3263,-0.25999,40,
102,1,3,1,152,1,195.0824,15.7627,109.4977,1,3,2,1,1,0,0,195.0824,104.6735,0.86808,-90.4089,0,
102,1,3,1,153,1,49.6062,18.9082,286.2096,1,2,3,3,0,0,1,286.2096,205.579,1.4443,-80.6305,0,
102,1,3,1,154,1,347.6564,78.106,46.4017,1,3,2,1,1,0,0,347.6564,313.8222,1.4026,-33.8342,0,
102,1,3,1,155,0,288.4209,108.74,16.9582,0,0,0,3,0,0,0,16.9582,26.116,1.104,9.1578,30,
102,1,3,1,156,1,198.8892,137.8473,165.1055,1,3,2,3,0,1,0,165.1055,28.1737,1.4651,-136.9318,0,
102,1,3,1,157,1,75.1113,106.5056,346.4903,3,1,2,3,1,0,0,346.4903,345.9041,0.91663,-0.58617,40,
102,1,3,1,158,0,165.0545,49.0987,195.1713,0,0,0,3,0,0,0,195.1713,191.1959,1.1317,-3.9754,30,
102,1,3,1,159,0,109.1325,285.0534,255.4778,0,0,0,2,0,0,0,285.0534,307.653,1.2636,22.5997,10,
102,1,3,1,160,1,285.6432,316.1039,257.2678,1,2,3,2,0,1,0,316.1039,288.7519,1.6525,-27.352,10,
102,1,3,1,161,1,106.1674,46.4605,138.3688,1,2,3,2,0,1,0,46.4605,345.8329,1.4445,-60.6276,0,
102,1,3,1,162,0,318.877,196.767,139.1947,0,0,0,3,0,0,0,139.1947,117.0818,1.0624,-22.1129,10,
102,1,3,1,163,1,317.6756,17.5867,76.2786,1,2,3,1,1,0,0,317.6756,314.8143,1.1457,-2.8613,40,
102,1,3,1,164,1,79.5412,286.426,255.6635,3,1,2,3,1,0,0,255.6635,234.3502,1.1666,-21.3133,10,
102,1,3,1,165,0,19.3541,226.667,47.3152,0,0,0,2,0,0,0,226.667,238.6496,2.2497,11.9826,30,
102,1,3,1,166,1,347.7523,287.8153,316.523,2,3,1,2,1,0,0,287.8153,314.3289,1.1735,26.5137,10,
102,1,3,1,167,1,288.0835,346.0155,108.388,1,2,3,1,1,0,0,288.0835,305.6514,1.0899,17.5679,20,
102,1,3,1,168,0,228.9714,17.4431,165.6529,0,0,0,1,0,0,0,228.9714,209.2104,0.92333,-19.761,20,
102,1,3,1,169,0,197.16,259.6526,137.5394,0,0,0,2,0,0,0,259.6526,326.0884,2.0483,66.4359,0,
102,1,3,1,170,1,286.7386,18.3336,197.2723,3,1,2,3,1,0,0,197.2723,207.3619,1.1805,10.0896,30,
102,1,3,1,171,1,45.0451,345.8454,256.0319,3,2,1,3,1,0,0,256.0319,241.481,1.1874,-14.5509,20,
102,1,3,1,172,0,76.3501,257.4088,286.1034,0,0,0,1,0,0,0,76.3501,78.2291,1.2708,1.879,40,
102,1,3,1,173,1,348.0693,226.4195,287.5407,3,2,1,3,1,0,0,287.5407,302.1071,0.9999,14.5664,20,
102,1,3,1,174,1,47.3497,198.9559,107.0938,2,3,1,2,1,0,0,198.9559,198.4386,1.1805,-0.51725,40,
102,1,3,1,175,1,139.5776,257.6101,315.2598,3,1,2,3,1,0,0,315.2598,307.8581,1.3682,-7.4017,30,
102,1,3,1,176,1,317.2746,198.2531,169.5221,3,1,2,3,1,0,0,169.5221,158.0962,0.92354,-11.4259,30,
102,1,3,1,177,0,78.0946,289.8516,108.346,0,0,0,3,0,0,0,108.346,110.1465,1.1178,1.8006,40,
102,1,3,1,178,1,77.5057,315.7093,347.0319,3,1,2,1,0,1,0,77.5057,77.2796,1.3471,-0.22612,40,
102,1,3,1,179,1,169.1646,347.5077,255.5137,3,1,2,2,0,0,1,347.5077,1.6189,1.583,14.1112,20,
102,1,3,1,180,0,315.7681,196.5423,75.6546,0,0,0,2,0,0,0,196.5423,21.5323,1.0205,-175.01,0,
102,1,4,1,181,1,168.0693,198.2604,318.0067,2,1,3,2,1,0,0,198.2604,180.9067,1.0207,-17.3537,20,
102,1,4,1,182,1,226.9859,346.3891,136.8093,3,1,2,3,1,0,0,136.8093,159.981,1.2499,23.1717,10,
102,1,4,1,183,1,108.2279,77.5562,318.3105,1,3,2,2,0,0,1,77.5562,61.4213,1.1735,-16.1349,20,
102,1,4,1,184,1,226.3128,75.3932,316.1006,1,3,2,1,1,0,0,226.3128,240.3027,0.93739,13.9898,20,
102,1,4,1,185,1,225.0231,195.9423,138.8982,3,1,2,3,1,0,0,138.8982,175.8515,0.9792,36.9533,0,
102,1,4,1,186,1,288.3429,137.1089,198.5138,2,3,1,2,1,0,0,137.1089,125.9768,0.91658,-11.132,30,
102,1,4,1,187,0,346.2418,138.6184,227.1619,0,0,0,3,0,0,0,227.1619,218.6299,1.2639,-8.532,30,
102,1,4,1,188,0,136.522,316.7142,48.2967,0,0,0,2,0,0,0,316.7142,123.6562,1.319,166.9419,0,
102,1,4,1,189,0,18.38,319.3721,136.6547,0,0,0,3,0,0,0,136.6547,119.814,1.4513,-16.8407,20,
102,1,4,1,190,0,345.7102,136.0875,288.8873,0,0,0,1,0,0,0,345.7102,333.2348,1.4581,-12.4754,20,
102,1,4,1,191,1,46.6209,345.8303,319.9904,2,1,3,2,1,0,0,345.8303,110.7718,0.86104,124.9415,0,
102,1,4,1,192,1,227.2501,195.8128,168.8246,1,2,3,3,0,0,1,168.8246,181.4472,1.5552,12.6226,20,
102,1,4,1,193,1,137.7538,45.1055,348.6839,3,2,1,1,0,0,1,137.7538,117.965,1.2706,-19.7888,20,
102,1,4,1,194,0,225.8808,76.1622,348.5751,0,0,0,2,0,0,0,76.1622,129.1752,1.5555,53.013,0,
102,1,4,1,195,1,165.3812,286.8469,259.0312,2,3,1,2,1,0,0,286.8469,303.2601,1.3679,16.4132,20,
102,1,4,1,196,0,285.8175,136.6198,319.0451,0,0,0,1,0,0,0,285.8175,317.2937,1.2707,31.4762,0,
102,1,4,1,197,0,256.5306,136.4539,17.1526,0,0,0,2,0,0,0,136.4539,134.724,1.4994,-1.7299,40,
102,1,4,1,198,1,168.5928,137.1222,46.2418,2,3,1,2,1,0,0,137.1222,125.4213,1.0623,-11.7009,30,
102,1,4,1,199,0,109.2626,289.9196,255.2693,0,0,0,3,0,0,0,255.2693,267.7173,0.93738,12.448,20,
102,1,4,1,200,1,136.6332,196.8498,317.464,3,1,2,1,0,1,0,136.6332,140.9128,1.2638,4.2796,30,
102,1,4,1,201,1,15.2638,49.8001,228.361,3,2,1,3,1,0,0,228.361,215.5735,1.2291,-12.7875,20,
102,1,4,1,202,1,169.6403,19.403,288.0954,3,1,2,3,1,0,0,288.0954,265.7686,1.3332,-22.3268,10,
102,1,4,1,203,0,107.8175,135.7213,349.2803,0,0,0,1,0,0,0,107.8175,171.5071,0.86795,63.6896,0,
102,1,4,1,204,1,17.5607,137.5771,197.3447,2,3,1,1,0,0,1,17.5607,337.7562,1.4238,-39.8046,0,
102,1,4,1,205,0,15.3174,137.9558,49.4988,0,0,0,1,0,0,0,15.3174,19.2297,1.4718,3.9123,30,
102,1,4,1,206,1,257.6961,289.6863,136.2781,3,2,1,3,1,0,0,136.2781,147.0753,1.3402,10.7971,30,
102,1,4,1,207,0,228.2249,256.091,138.4745,0,0,0,3,0,0,0,138.4745,156.5964,1.6873,18.1219,20,
102,1,4,1,208,0,19.1114,286.5951,318.2852,0,0,0,3,0,0,0,318.2852,318.0551,1.4721,-0.23017,40,
102,1,4,1,209,0,108.1345,49.2601,77.4513,0,0,0,2,0,0,0,49.2601,260.0684,1.2013,-149.1917,0,
102,1,4,1,210,1,18.7848,106.6625,229.4028,3,2,1,3,1,0,0,229.4028,200.521,1.8193,-28.8818,10,
102,1,4,1,211,0,108.9877,198.9369,255.4779,0,0,0,1,0,0,0,108.9877,108.0061,1.1528,-0.98154,40,
102,1,4,1,212,1,287.6485,16.1093,108.7409,1,3,2,1,1,0,0,287.6485,298.5751,0.90248,10.9266,30,
102,1,4,1,213,1,105.0812,136.0001,199.2925,1,3,2,1,1,0,0,105.0812,108.1541,0.95823,3.0729,30,
102,1,4,1,214,0,15.0584,198.6422,47.0765,0,0,0,2,0,0,0,198.6422,213.384,1.6804,14.7418,20,
102,1,4,1,215,1,79.6144,317.3332,16.8441,2,3,1,2,1,0,0,317.3332,130.0883,0.90265,172.7551,0,
102,1,4,1,216,1,46.5986,198.3553,347.6198,2,3,1,1,0,0,1,46.5986,38.8448,1.6316,-7.7539,30,
102,1,4,1,217,0,75.0974,348.0374,167.694,0,0,0,3,0,0,0,167.694,335.6259,2.8261,167.9319,0,
102,1,4,1,218,1,229.3881,318.0286,348.2341,3,2,1,3,1,0,0,348.2341,359.5767,1.1666,11.3427,30,
102,1,4,1,219,1,255.3654,18.7902,135.2536,1,2,3,1,1,0,0,255.3654,262.6726,1.3054,7.3072,30,
102,1,4,1,220,0,319.0146,258.651,168.9736,0,0,0,3,0,0,0,168.9736,166.0446,1.2429,-2.929,40,
102,1,4,1,221,1,316.7372,75.6977,286.0812,2,1,3,3,0,0,1,286.0812,340.9885,1.4786,54.9073,0,
102,1,4,1,222,1,45.1275,316.1684,259.8939,2,1,3,2,1,0,0,316.1684,78.3764,1.3471,122.2079,0,
102,1,4,1,223,0,75.7855,108.128,139.6292,0,0,0,2,0,0,0,108.128,105.2944,0.70824,-2.8337,40,
102,1,4,1,224,0,196.5227,258.358,346.0222,0,0,0,1,0,0,0,196.5227,77.1364,1.1388,-119.3863,0,
102,1,4,1,225,0,48.9004,168.5124,227.1034,0,0,0,2,0,0,0,168.5124,200.2848,3.1385,31.7724,0,
102,1,4,1,226,1,317.9409,46.2309,196.9919,1,3,2,1,1,0,0,317.9409,298.2694,1.7429,-19.6714,20,
102,1,4,1,227,0,225.3126,345.1289,316.6706,0,0,0,2,0,0,0,345.1289,11.5285,1.465,26.3995,10,
102,1,4,1,228,0,286.9961,135.3096,166.4648,0,0,0,2,0,0,0,135.3096,132.7963,1.4447,-2.5132,40,
102,1,4,1,229,0,229.791,79.0882,287.1195,0,0,0,1,0,0,0,229.791,205.8433,1.8054,-23.9478,10,
102,1,4,1,230,1,256.2072,168.4799,195.0763,1,2,3,1,1,0,0,256.2072,259.1525,1.3263,2.9453,40,
102,1,4,1,231,1,315.0164,255.2243,165.9456,2,1,3,1,0,1,0,315.0164,325.2405,1.3401,10.2241,30,
102,1,4,1,232,1,346.3173,229.9929,18.5527,2,1,3,2,1,0,0,229.9929,156.2336,0.91003,-73.7593,0,
102,1,4,1,233,0,196.3801,76.5574,288.3328,0,0,0,1,0,0,0,196.3801,190.2488,1.1391,-6.1313,30,
102,1,4,1,234,0,137.227,347.3276,318.6834,0,0,0,3,0,0,0,318.6834,311.3763,1.486,-7.3071,30,
102,1,4,1,235,0,109.2114,78.9399,257.6819,0,0,0,3,0,0,0,257.6819,236.9283,1.0832,-20.7536,20,
102,1,4,1,236,0,19.2867,228.0358,255.9856,0,0,0,1,0,0,0,19.2867,45.5569,1.2568,26.2702,10,
102,1,4,1,237,1,139.962,18.3997,349.6745,2,3,1,2,1,0,0,18.3997,13.5324,1.2705,-4.8673,30,
102,1,4,1,238,0,106.4416,225.9318,259.7367,0,0,0,2,0,0,0,225.9318,238.4914,1.5971,12.5596,20,
102,1,4,1,239,0,108.8845,315.6691,48.501,0,0,0,2,0,0,0,315.6691,326.2514,1.0831,10.5823,30,
102,1,4,1,240,1,76.7845,165.5625,256.2754,2,1,3,2,1,0,0,165.5625,148.8058,1.1875,-16.7568,20,
102,1,5,1,241,1,228.2911,16.305,196.4227,2,1,3,2,1,0,0,16.305,29.3485,0.98601,13.0435,20,
102,1,5,1,242,1,227.3688,79.2558,19.6459,1,3,2,2,0,0,1,79.2558,22.2341,0.76385,-57.0217,0,
102,1,5,1,243,1,16.426,259.5793,288.3534,1,2,3,2,0,1,0,259.5793,235.5515,2.1941,-24.0278,10,
102,1,5,1,244,0,229.6716,108.9759,77.2713,0,0,0,2,0,0,0,108.9759,113.8333,0.91657,4.8574,30,
102,1,5,1,245,0,259.5596,136.7567,46.8618,0,0,0,3,0,0,0,46.8618,41.5014,1.222,-5.3605,30,
102,1,5,1,246,0,228.1282,15.9025,195.1504,0,0,0,1,0,0,0,228.1282,224.3773,0.99295,-3.751,30,
102,1,5,1,247,1,259.7368,16.5834,137.8908,1,3,2,1,1,0,0,259.7368,250.9496,0.89571,-8.7872,30,
102,1,5,1,248,1,199.7466,319.7965,19.9497,3,1,2,3,1,0,0,19.9497,18.7772,0.42356,-1.1725,40,
102,1,5,1,249,0,199.978,259.3475,169.7395,0,0,0,2,0,0,0,259.3475,284.0461,1.4859,24.6987,10,
102,1,5,1,250,1,49.2368,226.2849,286.886,2,1,3,3,0,0,1,286.886,291.9522,1.285,5.0661,30,
102,1,5,1,251,1,78.4787,138.4745,289.2668,3,1,2,1,0,1,0,78.4787,194.4873,1.2777,116.0085,0,
102,1,5,1,252,0,285.1528,317.72,19.1175,0,0,0,3,0,0,0,19.1175,14.4213,0.77081,-4.6962,30,
102,1,5,1,253,0,75.3009,349.3086,225.3544,0,0,0,1,0,0,0,75.3009,99.5772,1.0694,24.2763,10,
102,1,5,1,254,1,135.38,105.1417,197.1675,2,1,3,1,0,1,0,135.38,102.1151,1.2637,-33.2649,0,
102,1,5,1,255,0,79.8943,108.3037,19.2312,0,0,0,2,0,0,0,108.3037,119.5626,0.93052,11.2589,30,
102,1,5,1,256,1,76.2625,197.1947,17.9359,1,2,3,2,0,1,0,197.1947,54.7033,1.1804,-142.4914,0,
102,1,5,1,257,1,285.1975,227.1738,165.8719,1,3,2,3,0,1,0,165.8719,198.5303,1.2776,32.6584,0,
102,1,5,1,258,1,139.4511,49.6629,195.6468,3,2,1,3,1,0,0,195.6468,197.9744,1.0203,2.3276,40,
102,1,5,1,259,0,225.566,315.3581,197.9051,0,0,0,1,0,0,0,225.566,269.4559,1.0138,43.8899,0,
102,1,5,1,260,1,19.5103,78.3466,135.8569,3,2,1,3,1,0,0,135.8569,140.8008,0.98598,4.9439,30,
102,1,5,1,261,0,76.506,47.9148,285.5384,0,0,0,2,0,0,0,47.9148,27.9194,1.3679,-19.9954,20,
102,1,5,1,262,0,108.7769,168.2008,346.5331,0,0,0,3,0,0,0,346.5331,10.7602,0.95824,24.2271,10,
102,1,5,1,263,1,16.8902,109.4934,138.9438,3,2,1,3,1,0,0,138.9438,121.015,0.66662,-17.9288,20,
102,1,5,1,264,0,78.1704,347.7574,258.8614,0,0,0,2,0,0,0,347.7574,354.6984,0.93751,6.941,30,
102,1,5,1,265,1,258.6754,49.5882,15.153,2,1,3,2,1,0,0,49.5882,39.4776,0.97219,-10.1105,30,
102,1,5,1,266,1,139.4723,165.3628,108.1772,3,1,2,2,0,0,1,165.3628,103.1456,1.5415,-62.2172,0,
102,1,5,1,267,0,287.6335,48.4547,345.2733,0,0,0,2,0,0,0,48.4547,38.2182,1.0139,-10.2366,30,
102,1,5,1,268,0,79.5617,109.5881,228.0927,0,0,0,1,0,0,0,79.5617,111.5338,0.85419,31.9721,0,
102,1,5,1,269,0,256.2028,226.4117,78.9937,0,0,0,2,0,0,0,226.4117,234.3954,1.2155,7.9837,30,
102,1,5,1,270,1,195.7787,347.0457,228.4683,1,2,3,1,1,0,0,195.7787,212.2057,1.0624,16.427,20,
102,1,5,1,271,0,196.4051,228.0945,166.1022,0,0,0,3,0,0,0,166.1022,182.585,1.1874,16.4828,20,
102,1,5,1,272,1,106.9624,45.3351,198.8926,3,2,1,3,1,0,0,198.8926,185.1314,1.0207,-13.7612,20,
102,1,5,1,273,1,319.0539,287.8236,165.2784,2,3,1,1,0,0,1,319.0539,334.1623,1.2845,15.1084,20,
102,1,5,1,274,0,347.212,197.3353,135.0519,0,0,0,2,0,0,0,197.3353,177.0844,1.0693,-20.2509,20,
102,1,5,1,275,1,197.5864,138.251,169.3563,3,2,1,3,1,0,0,169.3563,184.3556,0.97213,14.9993,20,
102,1,5,1,276,1,78.3333,196.916,348.4661,2,3,1,2,1,0,0,196.916,170.615,1.34,-26.301,10,
102,1,5,1,277,1,345.5161,229.0877,19.9005,2,3,1,2,1,0,0,229.0877,198.7195,0.93744,-30.3683,0,
102,1,5,1,278,1,137.058,255.2561,106.5764,1,3,2,1,1,0,0,137.058,119.2546,0.70827,-17.8034,20,
102,1,5,1,279,1,316.2382,79.9271,105.6379,1,3,2,1,1,0,0,316.2382,306.9775,1.2777,-9.2607,30,
102,1,5,1,280,0,229.4108,349.2476,197.8437,0,0,0,3,0,0,0,197.8437,195.9498,1.111,-1.8939,40,
102,1,5,1,281,1,229.4693,315.8155,49.9449,2,1,3,3,0,0,1,49.9449,35.409,1.5901,-14.5359,20,
102,1,5,1,282,0,227.5872,18.508,255.2254,0,0,0,1,0,0,0,227.5872,248.8543,0.90967,21.2671,10,
102,1,5,1,283,0,315.497,78.0433,109.0218,0,0,0,2,0,0,0,78.0433,82.3887,0.93051,4.3454,30,
102,1,5,1,284,1,18.7949,169.6158,289.3606,1,2,3,2,0,1,0,169.6158,144.122,1.2846,-25.4939,10,
102,1,5,1,285,1,199.3241,45.7012,348.2857,2,3,1,1,0,0,1,199.3241,200.964,1.4166,1.6399,40,
102,1,5,1,286,1,288.9333,195.5999,77.0599,1,3,2,1,1,0,0,288.9333,298.4038,1.035,9.4705,30,
102,1,5,1,287,1,107.9219,47.6928,319.9534,1,2,3,1,1,0,0,107.9219,115.5488,0.63883,7.6269,30,
102,1,5,1,288,0,138.8452,256.7315,319.8373,0,0,0,1,0,0,0,138.8452,125.619,0.9864,-13.2262,20,
102,1,5,1,289,1,78.9467,46.7546,196.1009,3,2,1,3,1,0,0,196.1009,225.7844,1.2916,29.6835,10,
102,1,5,1,290,1,346.2992,48.4378,77.1625,2,1,3,2,1,0,0,48.4378,23.7676,0.87491,-24.6702,10,
102,1,5,1,291,0,47.5361,168.0629,318.4329,0,0,0,2,0,0,0,168.0629,188.3924,1.8469,20.3295,20,
102,1,5,1,292,1,15.2567,229.1158,105.1847,1,3,2,1,1,0,0,15.2567,63.9309,1.4025,48.6742,0,
102,1,5,1,293,1,285.3355,346.8281,19.945,2,3,1,2,1,0,0,346.8281,339.5208,1.1874,-7.3073,30,
102,1,5,1,294,0,257.6577,228.2202,197.0375,0,0,0,3,0,0,0,197.0375,24.3962,1.1875,-172.6413,0,
102,1,5,1,295,0,199.4218,139.4775,15.3904,0,0,0,3,0,0,0,15.3904,7.4216,1.1875,-7.9688,30,
102,1,5,1,296,0,45.5671,195.2449,226.3806,0,0,0,3,0,0,0,226.3806,15.0897,0.96516,148.7091,0,
102,1,5,1,297,1,349.7923,108.436,166.3002,2,1,3,2,1,0,0,108.436,104.5854,0.84017,-3.8506,30,
102,1,5,1,298,1,316.3041,199.2829,227.7306,1,2,3,3,0,0,1,227.7306,212.1255,1.0763,-15.6051,20,
102,1,5,1,299,1,195.2795,46.0652,78.8827,2,3,1,2,1,0,0,46.0652,21.7455,0.74996,-24.3197,10,
102,1,5,1,300,1,315.0698,346.9085,289.5356,2,3,1,2,1,0,0,346.9085,19.4603,0.94434,32.5518,0,
102,1,6,1,301,0,79.7841,319.5073,168.5029,0,0,0,3,0,0,0,168.5029,162.315,0.99286,-6.1879,30,
102,1,6,1,302,1,109.2112,169.8573,285.7143,1,2,3,2,0,1,0,169.8573,136.5412,1.7153,-33.3161,0,
102,1,6,1,303,1,168.2753,226.9711,345.9674,2,1,3,2,1,0,0,226.9711,215.8455,0.64567,-11.1257,30,
102,1,6,1,304,0,15.1918,169.2424,75.5724,0,0,0,1,0,0,0,15.1918,18.8677,1.2221,3.676,30,
102,1,6,1,305,1,18.2956,318.6955,346.8718,2,3,1,2,1,0,0,318.6955,316.494,1.118,-2.2016,40,
102,1,6,1,306,1,289.9226,49.8966,138.096,1,3,2,2,0,0,1,49.8966,7.5834,0.90257,-42.3132,0,
102,1,6,1,307,1,345.7543,78.3395,316.6828,3,2,1,3,1,0,0,316.6828,343.0083,0.84758,26.3255,10,
102,1,6,1,308,1,287.5451,135.1288,169.8776,1,2,3,1,1,0,0,287.5451,301.7927,1.1183,14.2476,20,
102,1,6,1,309,1,255.8467,108.1058,137.1231,2,1,3,3,0,0,1,137.1231,315.2072,0.96518,178.0841,0,
102,1,6,1,310,1,288.4203,137.4371,106.7839,3,2,1,3,1,0,0,106.7839,102.9307,0.79121,-3.8532,30,
102,1,6,1,311,1,229.9133,197.8603,16.1625,3,2,1,1,0,0,1,229.9133,273.4702,1.486,43.5569,0,
102,1,6,1,312,1,256.8618,16.533,49.4882,2,1,3,2,1,0,0,16.533,14.6419,0.79143,-1.8911,40,
102,1,6,1,313,0,105.2382,348.4136,317.3775,0,0,0,2,0,0,0,348.4136,350.5819,0.89571,2.1683,40,
102,1,6,1,314,0,46.5277,198.6016,289.2731,0,0,0,3,0,0,0,289.2731,300.5018,0.64563,11.2287,30,
102,1,6,1,315,0,76.2584,47.9057,229.0416,0,0,0,2,0,0,0,47.9057,54.4922,0.87474,6.5865,30,
102,1,6,1,316,1,15.2076,226.9566,199.3315,2,3,1,3,0,1,0,199.3315,187.7127,1.479,-11.6188,30,
102,1,6,1,317,1,105.538,18.4729,48.7088,2,3,1,2,1,0,0,18.4729,6.3798,0.9166,-12.0931,20,
102,1,6,1,318,1,78.8217,168.5945,49.4033,3,2,1,1,0,0,1,78.8217,129.8385,0.88882,51.0169,0,
102,1,6,1,319,1,17.4996,137.615,255.098,3,1,2,3,1,0,0,255.098,231.1484,0.8888,-23.9497,10,
102,1,6,1,320,1,259.6594,195.4038,225.3495,3,1,2,3,1,0,0,225.3495,227.6215,0.9374,2.272,40,
102,1,6,1,321,1,138.7434,316.0323,258.3285,3,2,1,3,1,0,0,258.3285,235.5938,0.96518,-22.7347,10,
102,1,6,1,322,0,226.0773,136.1014,199.4504,0,0,0,3,0,0,0,199.4504,241.0341,0.91653,41.5837,0,
102,1,6,1,323,1,106.6549,46.057,18.1284,1,3,2,1,1,0,0,106.6549,116.0206,0.71521,9.3656,30,
102,1,6,1,324,1,75.7454,17.4716,229.2435,1,2,3,1,1,0,0,75.7454,97.036,1.0412,21.2906,10,
102,1,6,1,325,1,227.1365,106.384,169.8902,3,2,1,2,0,1,0,106.384,144.2134,1.4165,37.8293,0,
102,1,6,1,326,0,136.7248,289.6397,225.1506,0,0,0,1,0,0,0,136.7248,112.4551,0.59724,-24.2698,10,
102,1,6,1,327,1,226.6167,345.3252,106.8691,1,3,2,1,1,0,0,226.6167,117.734,0.77773,-108.8827,0,
102,1,6,1,328,1,137.1461,196.9953,105.3165,1,2,3,2,0,1,0,196.9953,246.801,1.2985,49.8057,0,
102,1,6,1,329,0,165.379,347.1849,316.3581,0,0,0,1,0,0,0,165.379,156.3557,0.81937,-9.0233,30,
102,1,6,1,330,1,198.6708,47.4609,167.0092,3,2,1,3,1,0,0,167.0092,172.161,1.0971,5.1518,30,
102,1,6,1,331,1,257.8686,48.9896,348.1638,3,1,2,3,1,0,0,348.1638,164.7245,1.0069,176.5607,0,
102,1,6,1,332,0,45.5781,76.0204,105.5813,0,0,0,3,0,0,0,105.5813,76.8809,1.0694,-28.7004,10,
102,1,6,1,333,1,135.3108,108.4758,285.0103,2,1,3,2,1,0,0,108.4758,100.9618,0.94435,-7.514,30,
102,1,6,1,334,0,227.9536,315.0231,15.1538,0,0,0,2,0,0,0,315.0231,121.4872,1.4789,166.464,0,
102,1,6,1,335,0,49.2546,107.1262,77.872,0,0,0,1,0,0,0,49.2546,26.3643,1.2151,-22.8903,10,
102,1,6,1,336,0,348.9192,315.0932,109.5136,0,0,0,2,0,0,0,315.0932,342.6143,1.2499,27.5211,10,
102,1,6,1,337,0,17.6051,135.8951,258.0446,0,0,0,1,0,0,0,17.6051,35.0178,0.99298,17.4127,20,
102,1,6,1,338,1,166.9995,199.6776,317.3812,1,3,2,1,1,0,0,166.9995,140.155,1.0277,-26.8445,10,
102,1,6,1,339,1,135.6205,47.0353,285.3385,1,2,3,1,1,0,0,135.6205,135.1495,1.1596,-0.47107,40,
102,1,6,1,340,0,109.7587,15.5682,75.5864,0,0,0,1,0,0,0,109.7587,118.2613,0.84025,8.5026,30,
102,1,6,1,341,0,15.0025,285.5097,106.8519,0,0,0,3,0,0,0,106.8519,79.7367,1.0349,-27.1152,10,
102,1,6,1,342,1,138.1121,78.2913,105.8854,2,3,1,2,1,0,0,78.2913,84.3764,0.73572,6.085,30,
102,1,6,1,343,1,287.1474,78.8986,166.9833,3,2,1,2,0,1,0,78.8986,88.6931,0.65967,9.7945,30,
102,1,6,1,344,1,138.8128,289.8301,109.6494,1,3,2,1,1,0,0,138.8128,119.6002,0.58327,-19.2127,20,
102,1,6,1,345,1,48.0687,106.7289,228.6132,2,1,3,1,0,1,0,48.0687,179.6404,0.83322,131.5717,0,
102,1,6,1,346,1,16.059,46.6451,78.8117,1,3,2,2,0,0,1,46.6451,228.3049,1.5901,-178.3402,0,
102,1,6,1,347,1,319.6437,347.9149,165.0771,3,1,2,3,1,0,0,165.0771,175.5309,1.0974,10.4538,30,
102,1,6,1,348,1,49.2638,197.4076,16.3615,3,1,2,1,0,1,0,49.2638,15.1142,1.7359,-34.1496,0,
102,1,6,1,349,1,168.5688,105.5118,137.2364,3,1,2,3,1,0,0,137.2364,356.0327,0.5416,-141.2037,0,
102,1,6,1,350,0,256.5323,289.1405,199.0395,0,0,0,3,0,0,0,199.0395,304.5192,0.66,105.4798,0,
102,1,6,1,351,1,289.3933,257.0109,317.8066,3,1,2,3,1,0,0,317.8066,338.1052,0.92325,20.2986,20,
102,1,6,1,352,0,45.738,169.6035,199.6473,0,0,0,1,0,0,0,45.738,49.6836,1.2847,3.9456,30,
102,1,6,1,353,0,75.9207,225.0509,15.4296,0,0,0,1,0,0,0,75.9207,65.6242,1.0277,-10.2965,30,
102,1,6,1,354,0,166.8589,226.9144,46.2815,0,0,0,2,0,0,0,226.9144,216.6011,1.6179,-10.3133,30,
102,1,6,1,355,0,255.2989,138.0798,107.8197,0,0,0,1,0,0,0,255.2989,28.5042,1.2429,133.2053,0,
102,1,6,1,356,1,288.9209,349.9041,78.4497,3,2,1,3,1,0,0,78.4497,71.6215,0.85446,-6.8282,30,
102,1,6,1,357,0,228.5225,288.6814,78.2834,0,0,0,1,0,0,0,228.5225,237.7159,0.63187,9.1935,30,
102,1,6,1,358,0,258.4428,139.2845,199.5032,0,0,0,3,0,0,0,199.5032,219.1493,1.1457,19.6461,20,
102,1,6,1,359,1,75.109,109.102,226.4375,1,3,2,1,1,0,0,75.109,11.8474,1.25,-63.2617,0,
102,1,6,1,360,1,228.5207,257.1121,199.7893,1,2,3,3,0,0,1,199.7893,231.948,1.0558,32.1587,0,
102,1,7,2,361,1,348.6401,108.1069,135.629,1,3,2,2,0,0,1,108.1069,52.2641,0.86107,-55.8427,0,
102,1,7,2,362,0,165.9707,77.9004,136.2374,0,0,0,3,0,0,0,136.2374,135.2556,1.0693,-0.98178,40,
102,1,7,2,363,1,229.1241,195.9179,256.9655,2,3,1,1,0,0,1,229.1241,184.5396,0.76363,-44.5845,0,
102,1,7,2,364,0,165.5695,109.6809,78.4418,0,0,0,2,0,0,0,109.6809,82.1939,1.236,-27.4869,10,
102,1,7,2,365,1,166.3811,318.0762,16.4743,3,2,1,3,1,0,0,16.4743,19.1079,0.6527,2.6336,40,
102,1,7,2,366,0,315.405,165.8073,195.459,0,0,0,1,0,0,0,315.405,312.2357,1.479,-3.1693,30,
102,1,7,2,367,1,109.6495,47.4527,18.9816,1,2,3,2,0,1,0,47.4527,NaN,100000,999,0,
102,1,7,2,368,1,315.9086,169.1649,17.0315,3,1,2,2,0,0,1,169.1649,3.8636,1.2358,-165.3013,0,
102,1,7,2,369,1,107.3031,169.6046,349.4309,3,1,2,3,1,0,0,349.4309,0.51662,0.76383,11.0857,30,
102,1,7,2,370,1,108.4366,228.0565,165.4117,2,1,3,2,1,0,0,228.0565,329.1897,0.75688,101.1332,0,
102,1,7,2,371,1,316.0868,15.5768,45.4294,3,2,1,3,1,0,0,45.4294,28.2064,1.1249,-17.2229,20,
102,1,7,2,372,1,169.7511,317.414,197.1645,1,2,3,1,1,0,0,169.7511,123.8971,0.7638,-45.854,0,
102,1,7,2,373,1,135.5719,46.7905,318.9267,2,1,3,2,1,0,0,46.7905,53.6941,0.66655,6.9035,30,
102,1,7,2,374,0,346.8346,19.0539,319.4885,0,0,0,1,0,0,0,346.8346,354.9946,1.0903,8.16,30,
102,1,7,2,375,0,45.1252,77.8716,18.6469,0,0,0,1,0,0,0,45.1252,47.0765,1.6318,1.9512,40,
102,1,7,2,376,1,317.5322,107.8856,259.3953,1,3,2,1,1,0,0,317.5322,304.537,1.0346,-12.9951,20,
102,1,7,2,377,1,76.9089,199.9239,16.0256,1,3,2,2,0,0,1,199.9239,228.0334,1.7915,28.1095,10,
102,1,7,2,378,0,345.0754,165.4797,78.9348,0,0,0,2,0,0,0,165.4797,166.1971,1.118,0.71738,40,
102,1,7,2,379,1,109.1753,197.4117,135.2972,3,2,1,3,1,0,0,135.2972,157.1665,0.86103,21.8693,10,
102,1,7,2,380,1,196.7345,169.6713,346.8693,3,1,2,3,1,0,0,346.8693,353.725,0.99992,6.8558,30,
102,1,7,2,381,1,107.2397,46.175,135.3356,3,2,1,3,1,0,0,135.3356,0.42344,0.62498,-134.9122,0,
102,1,7,2,382,0,226.7344,348.1009,317.1787,0,0,0,2,0,0,0,348.1009,8.1011,0.99296,20.0001,20,
102,1,7,2,383,0,195.1111,168.29,137.2932,0,0,0,3,0,0,0,137.2932,141.8772,0.91651,4.584,30,
102,1,7,2,384,1,347.3584,46.9958,19.5556,1,3,2,3,0,1,0,19.5556,NaN,100000,999,0,
102,1,7,2,385,0,319.1758,109.2633,258.2195,0,0,0,3,0,0,0,258.2195,260.4021,0.75689,2.1826,40,
102,1,7,2,386,0,197.0324,288.9135,137.166,0,0,0,1,0,0,0,197.0324,216.8717,0.95129,19.8393,20,
102,1,7,2,387,0,348.7326,75.5152,105.2421,0,0,0,1,0,0,0,348.7326,4.436,1.1322,15.7034,20,
102,1,7,2,388,1,77.205,226.647,167.8605,2,3,1,2,1,0,0,226.647,200.9529,0.9999,-25.6941,10,
102,1,7,2,389,1,345.8717,259.7531,79.8875,1,2,3,2,0,1,0,259.7531,NaN,100000,999,0,
102,1,7,2,390,1,285.5664,17.3066,228.5932,2,3,1,1,0,0,1,285.5664,219.7384,0.87495,-65.8281,0,
102,1,7,2,391,1,196.333,165.6764,255.3885,2,3,1,1,0,0,1,196.333,283.9976,1.604,87.6646,0,
102,1,7,2,392,0,106.7317,169.8031,346.5066,0,0,0,2,0,0,0,169.8031,154.4999,1.3749,-15.3031,20,
102,1,7,2,393,1,136.2231,17.9134,225.2637,3,2,1,3,1,0,0,225.2637,236.7315,0.97925,11.4678,30,
102,1,7,2,394,1,48.0304,138.6822,108.5663,1,2,3,1,1,0,0,48.0304,124.3899,0.91661,76.3596,0,
102,1,7,2,395,1,135.9702,318.1324,228.1037,3,1,2,3,1,0,0,228.1037,226.321,0.99301,-1.7826,40,
102,1,7,2,396,1,165.2446,15.5411,79.2915,3,2,1,3,1,0,0,79.2915,235.7992,0.95121,156.5078,0,
102,1,7,2,397,0,285.1272,199.8929,135.661,0,0,0,1,0,0,0,285.1272,24.914,1.5276,99.7869,0,
102,1,7,2,398,1,108.6478,317.4935,257.7333,1,3,2,3,0,1,0,257.7333,NaN,100000,999,0,
102,1,7,2,399,1,47.793,198.7833,229.8796,3,2,1,1,0,0,1,47.793,46.062,1.2429,-1.731,40,
102,1,7,2,400,0,16.5286,198.8272,226.2644,0,0,0,3,0,0,0,226.2644,221.618,1.2711,-4.6464,30,
102,1,7,2,401,0,257.3597,48.9807,169.3782,0,0,0,1,0,0,0,257.3597,269.0479,1.3263,11.6881,30,
102,1,7,2,402,1,226.0922,49.7603,76.8113,2,3,1,3,0,1,0,76.8113,NaN,100000,999,0,
102,1,7,2,403,0,227.4851,346.4198,105.371,0,0,0,3,0,0,0,105.371,106.5425,1.0625,1.1714,40,
102,1,7,2,404,1,256.8705,46.0809,17.8801,1,2,3,1,1,0,0,256.8705,266.2355,0.65966,9.365,30,
102,1,7,2,405,1,15.124,49.5563,345.74,1,3,2,1,1,0,0,15.124,245.4051,0.63883,-129.7189,0,
102,1,7,2,406,0,259.4542,17.9429,105.8129,0,0,0,2,0,0,0,17.9429,61.2638,0.65272,43.3209,0,
102,1,7,2,407,1,16.7648,199.979,316.8248,3,2,1,3,1,0,0,316.8248,343.9271,0.53477,27.1023,10,
102,1,7,2,408,0,49.1793,317.9413,226.8173,0,0,0,1,0,0,0,49.1793,187.7307,0.93046,138.5513,0,
102,1,7,2,409,0,135.3203,49.2732,19.8723,0,0,0,3,0,0,0,19.8723,29.9704,0.84024,10.0981,30,
102,1,7,2,410,1,348.9881,196.8402,165.0757,1,2,3,1,1,0,0,348.9881,148.6651,0.52819,159.6771,0,
102,1,7,2,411,0,169.6561,48.0783,106.2914,0,0,0,2,0,0,0,48.0783,59.2915,0.76386,11.2132,30,
102,1,7,2,412,1,259.3564,318.0681,106.3572,2,1,3,2,1,0,0,318.0681,324.6176,0.95115,6.5496,30,
102,1,7,2,413,0,48.6716,136.6975,346.5138,0,0,0,2,0,0,0,136.6975,359.2037,0.90236,-137.4939,0,
102,1,7,2,414,0,46.251,18.0135,228.1273,0,0,0,2,0,0,0,18.0135,137.2394,1.1319,119.2259,0,
102,1,7,2,415,0,18.6461,228.4192,138.2071,0,0,0,2,0,0,0,228.4192,206.7661,1.4374,-21.6531,10,
102,1,7,2,416,1,137.01,78.9045,259.1961,1,2,3,2,0,1,0,78.9045,NaN,100000,999,0,
102,1,7,2,417,0,228.0223,256.9172,107.7524,0,0,0,2,0,0,0,256.9172,244.3784,1.1739,-12.5388,20,
102,1,7,2,418,1,77.5213,136.8426,18.4262,1,2,3,1,1,0,0,77.5213,107.0329,0.61105,29.5116,10,
102,1,7,2,419,0,45.0179,257.1253,16.1217,0,0,0,2,0,0,0,257.1253,132.2892,0.93732,-124.8361,0,
102,1,7,2,420,1,167.9834,315.0926,139.666,2,3,1,2,1,0,0,315.0926,314.6459,0.9235,-0.44678,40,
102,1,8,2,421,1,19.4819,349.1117,259.4139,1,2,3,3,0,0,1,259.4139,227.5971,1.2636,-31.8168,0,
102,1,8,2,422,1,226.2781,19.858,77.9056,1,2,3,1,1,0,0,226.2781,232.9282,0.88882,6.6502,30,
102,1,8,2,423,0,45.6067,75.203,349.4397,0,0,0,1,0,0,0,45.6067,233.0184,0.9374,-172.5883,0,
102,1,8,2,424,0,108.7988,198.075,135.7603,0,0,0,1,0,0,0,108.7988,33.8847,1.4513,-74.914,0,
102,1,8,2,425,1,347.5489,78.1367,19,2,3,1,1,0,0,1,347.5489,338.6953,1.2358,-8.8536,30,
102,1,8,2,426,1,258.037,49.9834,195.2119,1,2,3,1,1,0,0,258.037,288.6086,0.86797,30.5716,0,
102,1,8,2,427,1,229.2602,15.4968,257.9889,1,3,2,1,1,0,0,229.2602,251.0638,1.2846,21.8037,10,
102,1,8,2,428,0,345.1878,285.5768,259.0935,0,0,0,2,0,0,0,285.5768,351.2673,1.229,65.6905,0,
102,1,8,2,429,0,107.8684,347.4155,47.1081,0,0,0,1,0,0,0,107.8684,17.4835,0.90963,-90.3849,0,
102,1,8,2,430,0,196.8805,76.0165,165.8958,0,0,0,3,0,0,0,165.8958,1.0307,1.9649,-164.8652,0,
102,1,8,2,431,0,259.979,135.0422,228.6642,0,0,0,2,0,0,0,135.0422,35.3285,0.71521,-99.7137,0,
102,1,8,2,432,0,289.2735,346.0245,19.3018,0,0,0,2,0,0,0,346.0245,133.6003,1.0134,147.5758,0,
102,1,8,2,433,1,348.6641,77.3639,16.9629,3,1,2,3,1,0,0,16.9629,25.3547,0.86797,8.3918,30,
102,1,8,2,434,1,139.7399,49.6835,109.9839,1,3,2,1,1,0,0,139.7399,127.962,0.93046,-11.7779,30,
102,1,8,2,435,0,258.7759,16.4223,166.0312,0,0,0,1,0,0,0,258.7759,273.3412,0.90308,14.5652,20,
102,1,8,2,436,1,285.3578,135.942,106.6778,1,2,3,3,0,0,1,106.6778,84.983,1.2151,-21.6949,10,
102,1,8,2,437,0,287.168,75.6769,166.078,0,0,0,1,0,0,0,287.168,299.3845,1.0485,12.2165,20,
102,1,8,2,438,0,348.0378,45.3974,137.0769,0,0,0,2,0,0,0,45.3974,54.3955,0.86793,8.9981,30,
102,1,8,2,439,0,228.4184,79.442,138.5643,0,0,0,1,0,0,0,228.4184,330.4237,1.2915,102.0052,0,
102,1,8,2,440,1,106.9983,77.2006,196.5481,2,3,1,2,1,0,0,77.2006,345.6287,0.77081,-91.5719,0,
102,1,8,2,441,1,138.2049,259.8788,319.6033,3,2,1,3,1,0,0,319.6033,6.7169,1.3196,47.1136,0,
102,1,8,2,442,1,16.7871,75.6814,169.0289,2,1,3,2,1,0,0,75.6814,61.6032,0.81244,-14.0782,20,
102,1,8,2,443,0,138.017,198.3382,169.3166,0,0,0,3,0,0,0,169.3166,169.9405,1.0554,0.62388,40,
102,1,8,2,444,0,46.4313,349.1655,288.8512,0,0,0,3,0,0,0,288.8512,287.7158,0.67355,-1.1354,40,
102,1,8,2,445,0,15.4099,286.8748,255.435,0,0,0,3,0,0,0,255.435,282.6144,0.7291,27.1793,10,
102,1,8,2,446,0,258.6654,107.634,76.3465,0,0,0,3,0,0,0,76.3465,56.7065,0.95858,-19.64,20,
102,1,8,2,447,1,108.6335,169.8065,228.7511,1,2,3,2,0,1,0,169.8065,NaN,100000,999,0,
102,1,8,2,448,1,16.72,286.1982,165.002,2,1,3,2,1,0,0,286.1982,309.1396,1.2913,22.9414,10,
102,1,8,2,449,0,168.6221,287.0458,139.9883,0,0,0,1,0,0,0,168.6221,22.9527,1.0277,-145.6694,0,
102,1,8,2,450,1,348.249,318.9504,75.3615,3,1,2,2,0,0,1,318.9504,273.0388,1.3679,-45.9116,0,
102,1,8,2,451,0,47.0638,317.0801,197.3169,0,0,0,1,0,0,0,47.0638,69.0361,1.2152,21.9723,10,
102,1,8,2,452,0,255.3488,319.3022,166.0419,0,0,0,1,0,0,0,255.3488,62.2009,1.0902,166.8521,0,
102,1,8,2,453,1,286.5414,166.6602,19.658,1,2,3,3,0,0,1,19.658,225.2384,1.0138,-154.4196,0,
102,1,8,2,454,0,48.7005,137.024,315.2571,0,0,0,3,0,0,0,315.2571,323.4872,0.97177,8.2301,30,
102,1,8,2,455,1,258.172,318.6573,285.7818,1,2,3,1,1,0,0,258.172,264.0558,0.7912,5.8839,30,
102,1,8,2,456,1,165.231,257.1094,286.7793,2,3,1,2,1,0,0,257.1094,251.4422,1.0975,-5.6671,30,
102,1,8,2,457,1,227.6564,169.6851,256.6671,1,3,2,1,1,0,0,227.6564,247.8355,1.0488,20.1792,20,
102,1,8,2,458,0,107.2598,348.8097,288.1292,0,0,0,1,0,0,0,107.2598,97.67,1.361,-9.5898,30,
102,1,8,2,459,0,15.902,46.4852,199.1465,0,0,0,3,0,0,0,199.1465,206.9478,0.72906,7.8013,30,
102,1,8,2,460,1,168.8212,106.8982,197.2703,3,1,2,2,0,0,1,106.8982,77.8732,0.97909,-29.025,10,
102,1,8,2,461,1,137.7108,199.1513,166.5872,3,1,2,3,1,0,0,166.5872,180.3514,0.89573,13.7642,20,
102,1,8,2,462,0,137.9032,285.9225,347.4746,0,0,0,2,0,0,0,285.9225,296.4572,1.3262,10.5347,30,
102,1,8,2,463,1,196.5762,75.7709,106.9421,1,2,3,2,0,1,0,75.7709,NaN,100000,999,0,
102,1,8,2,464,1,285.3413,136.0661,78.8595,3,1,2,3,1,0,0,78.8595,70.3304,0.7638,-8.5291,30,
102,1,8,2,465,0,108.3365,79.3563,165.9066,0,0,0,2,0,0,0,79.3563,128.7297,0.97904,49.3734,0,
102,1,8,2,466,1,168.7508,348.7918,47.9178,2,3,1,3,0,1,0,47.9178,NaN,100000,999,0,
102,1,8,2,467,1,136.3524,348.8175,316.5929,1,2,3,1,1,0,0,136.3524,131.998,0.94398,-4.3545,30,
102,1,8,2,468,1,75.5238,107.2228,287.4528,1,2,3,3,0,0,1,287.4528,308.7834,0.89546,21.3306,10,
102,1,8,2,469,1,108.5544,76.3167,166.4805,3,1,2,3,1,0,0,166.4805,324.6008,0.65967,158.1202,0,
102,1,8,2,470,1,259.2464,105.2999,18.8336,3,1,2,3,1,0,0,18.8336,9.5573,0.56207,-9.2763,30,
102,1,8,2,471,0,75.1583,345.7907,108.5985,0,0,0,1,0,0,0,75.1583,71.8487,0.93046,-3.3096,30,
102,1,8,2,472,0,138.904,195.9652,285.8697,0,0,0,1,0,0,0,138.904,125.968,0.98602,-12.9359,20,
102,1,8,2,473,1,199.5466,285.8034,138.6897,2,3,1,2,1,0,0,285.8034,325.3219,0.66657,39.5184,0,
102,1,8,2,474,1,45.596,168.2843,289.7366,3,2,1,3,1,0,0,289.7366,247.3741,0.75686,-42.3625,0,
102,1,8,2,475,0,47.2486,259.3221,289.7698,0,0,0,3,0,0,0,289.7698,302.5435,0.74298,12.7737,20,
102,1,8,2,476,1,259.3878,105.4648,79.6492,1,3,2,1,1,0,0,259.3878,92.1177,0.72207,-167.2701,0,
102,1,8,2,477,1,77.187,227.5914,47.8009,2,1,3,3,0,0,1,47.8009,105.118,1.7147,57.3171,0,
102,1,8,2,478,0,197.6277,46.1462,135.2819,0,0,0,3,0,0,0,135.2819,116.1182,1.2707,-19.1637,20,
102,1,8,2,479,0,139.1133,197.1161,345.5079,0,0,0,2,0,0,0,197.1161,181.472,1.1804,-15.6441,20,
102,1,8,2,480,0,17.8186,46.5734,105.7283,0,0,0,3,0,0,0,105.7283,45.246,1.0762,-60.4823,0,
