Subject,Session,Block,Condition,Trial,whetherCued,leftStim,rightStim,midStim,remCueLoc,fogCueLoc,neutralCueLoc,probeCueLoc,probeRem,probeForget,probeNeutral,Target,Estimate,RT,Error,Points
120,1,1,2,1,0,136.1214,256.3453,18.3652,0,0,0,3,0,0,0,18.3652,43.8385,0.99997,25.4733,10,
120,1,1,2,2,1,289.4795,225.4954,105.2208,2,3,1,2,1,0,0,225.4954,121.9899,1.875,-103.5056,0,
120,1,1,2,3,1,347.5064,287.1586,109.9878,1,3,2,1,1,0,0,347.5064,127.8258,1.9751,140.3193,0,
120,1,1,2,4,0,348.6529,108.2324,289.1658,0,0,0,2,0,0,0,108.2324,319.8843,3.1836,-148.3481,0,
120,1,1,2,5,0,107.4617,228.4737,289.8637,0,0,0,3,0,0,0,289.8637,286.8143,1.3743,-3.0493,30,
120,1,1,2,6,1,138.3022,255.2378,226.7439,1,3,2,2,0,0,1,255.2378,102.6082,2.4917,-152.6296,0,
120,1,1,2,7,1,197.5189,257.448,49.3852,1,3,2,1,1,0,0,197.5189,226.813,1.4168,29.2941,10,
120,1,1,2,8,1,105.0963,165.4194,19.874,3,1,2,3,1,0,0,19.874,34.391,2.5168,14.517,20,
120,1,1,2,9,1,349.6502,286.9951,105.237,2,3,1,2,1,0,0,286.9951,289.5667,1.5168,2.5716,40,
120,1,1,2,10,1,259.389,197.9122,285.3534,3,2,1,3,1,0,0,285.3534,294.3225,0.68342,8.9691,30,
120,1,1,2,11,1,317.5194,78.234,226.5387,2,1,3,2,1,0,0,78.234,107.4109,1.3917,29.1769,10,
120,1,1,2,12,0,226.4331,199.0041,19.4806,0,0,0,2,0,0,0,199.0041,220.2537,1.5168,21.2496,10,
120,1,1,2,13,1,199.1477,319.2454,226.8627,2,3,1,2,1,0,0,319.2454,222.1688,1.5751,-97.0766,0,
120,1,1,2,14,1,198.7837,137.0852,229.8589,3,2,1,1,0,0,1,198.7837,207.3699,1.7336,8.5861,30,
120,1,1,2,15,1,317.252,136.0284,79.4983,2,3,1,2,1,0,0,136.0284,91.9314,2.2585,-44.097,0,
120,1,1,2,16,1,166.9501,227.4895,288.474,3,1,2,3,1,0,0,288.474,289.9602,2.0587,1.4862,40,
120,1,1,2,17,0,255.5852,109.0734,346.6243,0,0,0,3,0,0,0,346.6243,328.158,1.55,-18.4663,20,
120,1,1,2,18,0,19.1594,45.6717,75.3023,0,0,0,2,0,0,0,45.6717,48.8639,0.96671,3.1922,30,
120,1,1,2,19,1,139.9843,17.7677,197.5773,1,2,3,1,1,0,0,139.9843,142.0842,1.2919,2.0999,40,
120,1,1,2,20,1,169.6556,105.9539,16.2929,3,2,1,1,0,0,1,169.6556,149.5807,1.1667,-20.0749,20,
120,1,1,2,21,1,198.6008,256.7345,227.585,1,3,2,1,1,0,0,198.6008,199.1298,1.1835,0.52899,40,
120,1,1,2,22,1,47.1514,228.4688,289.7261,3,2,1,3,1,0,0,289.7261,297.8081,1.8334,8.0821,30,
120,1,1,2,23,1,288.3452,197.5011,346.09,3,2,1,3,1,0,0,346.09,345.6652,1.3834,-0.42481,40,
120,1,1,2,24,1,229.3193,135.4885,169.5403,2,3,1,2,1,0,0,135.4885,141.1148,2.4002,5.6264,30,
120,1,1,2,25,0,137.5392,347.928,18.8144,0,0,0,3,0,0,0,18.8144,25.8585,1.8084,7.0441,30,
120,1,1,2,26,1,17.7694,108.4003,196.8359,3,1,2,3,1,0,0,196.8359,216.9966,2.8502,20.1606,20,
120,1,1,2,27,0,135.7013,16.3007,195.4341,0,0,0,1,0,0,0,135.7013,137.6102,1.8752,1.9089,40,
120,1,1,2,28,0,346.1034,285.0065,135.9459,0,0,0,1,0,0,0,346.1034,340.6731,1.9168,-5.4303,30,
120,1,1,2,29,1,105.3418,17.1816,75.8693,3,2,1,3,1,0,0,75.8693,48.0463,1.4168,-27.823,10,
120,1,1,2,30,1,166.1401,16.8543,319.4546,1,3,2,1,1,0,0,166.1401,156.9187,1.3335,-9.2214,30,
120,1,1,2,31,1,347.6621,78.5825,225.8965,3,2,1,3,1,0,0,225.8965,279.1017,1.1417,53.2052,0,
120,1,1,2,32,1,169.6783,319.0936,48.6413,2,1,3,1,0,1,0,169.6783,NaN,100000,999,0,
120,1,1,2,33,1,108.812,17.8803,78.7383,3,2,1,3,1,0,0,78.7383,56.3772,1.8502,-22.3611,10,
120,1,1,2,34,0,347.6614,136.397,49.7312,0,0,0,3,0,0,0,49.7312,52.9565,1.9252,3.2253,30,
120,1,1,2,35,0,78.6346,196.8692,47.9079,0,0,0,1,0,0,0,78.6346,106.0285,2.2585,27.3939,10,
120,1,1,2,36,1,45.7597,16.9855,196.8736,3,1,2,2,0,0,1,16.9855,51.9623,2.5335,34.9768,0,
120,1,1,2,37,1,138.2116,316.1063,79.1853,3,1,2,3,1,0,0,79.1853,53.5251,1.6502,-25.6601,10,
120,1,1,2,38,1,319.2929,289.5553,168.4982,3,2,1,3,1,0,0,168.4982,153.0724,1.8085,-15.4258,20,
120,1,1,2,39,1,287.6468,199.1499,49.2938,1,2,3,3,0,0,1,49.2938,34.1613,3.6168,-15.1325,20,
120,1,1,2,40,1,169.2518,139.5582,198.1964,1,2,3,2,0,1,0,139.5582,NaN,100000,999,0,
120,1,1,2,41,0,169.1329,48.3844,286.038,0,0,0,3,0,0,0,286.038,280.8759,1.1417,-5.1621,30,
120,1,1,2,42,0,287.2569,316.9132,48.9482,0,0,0,2,0,0,0,316.9132,319.141,1.5001,2.2278,40,
120,1,1,2,43,0,228.7938,349.9761,315.9329,0,0,0,3,0,0,0,315.9329,307.4023,1.0583,-8.5306,30,
120,1,1,2,44,1,285.9688,47.1618,258.7458,2,3,1,2,1,0,0,47.1618,52.8883,0.99179,5.7265,30,
120,1,1,2,45,0,19.6749,137.3974,346.159,0,0,0,1,0,0,0,19.6749,39.4616,3.1585,19.7867,20,
120,1,1,2,46,1,287.6548,259.506,317.7028,2,3,1,2,1,0,0,259.506,292.5247,1.7001,33.0186,0,
120,1,1,2,47,1,105.9911,165.9754,316.6342,1,2,3,1,1,0,0,105.9911,119.8577,2.0251,13.8666,20,
120,1,1,2,48,0,109.0699,259.4922,77.1462,0,0,0,1,0,0,0,109.0699,121.3828,1.6001,12.313,20,
120,1,1,2,49,0,315.4649,347.3174,285.0467,0,0,0,1,0,0,0,315.4649,120.4592,1.7085,164.9943,0,
120,1,1,2,50,1,77.1828,225.2461,105.2482,2,3,1,2,1,0,0,225.2461,62.6501,2.1751,-162.5959,0,
120,1,1,2,51,0,17.3062,228.1966,259.5867,0,0,0,2,0,0,0,228.1966,239.4637,1.725,11.2671,30,
120,1,1,2,52,0,19.9049,195.6352,286.1612,0,0,0,2,0,0,0,195.6352,218.3658,1.7169,22.7306,10,
120,1,1,2,53,0,19.2845,75.217,318.4581,0,0,0,1,0,0,0,19.2845,221.6211,2.1418,-157.6634,0,
120,1,1,2,54,0,79.095,348.1246,228.6928,0,0,0,1,0,0,0,79.095,228.7606,1.9167,149.6656,0,
120,1,1,2,55,0,49.4771,227.9126,257.9137,0,0,0,3,0,0,0,257.9137,64.9764,2.0418,167.0627,0,
120,1,1,2,56,0,47.0319,136.931,228.049,0,0,0,2,0,0,0,136.931,330.4934,3.9086,-166.4375,0,
120,1,1,2,57,0,77.6151,16.6265,49.1592,0,0,0,3,0,0,0,49.1592,49.0177,1.4167,-0.14151,40,
120,1,1,2,58,0,137.6428,345.2572,78.7844,0,0,0,2,0,0,0,345.2572,328.9845,2.0002,-16.2727,20,
120,1,1,2,59,1,168.7425,317.7165,226.6907,3,2,1,2,0,1,0,317.7165,NaN,100000,999,0,
120,1,1,2,60,1,315.1258,197.0721,138.657,1,2,3,1,1,0,0,315.1258,311.7779,2.0419,-3.3479,30,
120,1,2,2,61,1,315.8145,169.192,195.8378,2,3,1,2,1,0,0,169.192,157.1319,1.7584,-12.0602,20,
120,1,2,2,62,0,109.7017,135.0292,228.0515,0,0,0,3,0,0,0,228.0515,243.0097,1.1833,14.9582,20,
120,1,2,2,63,1,256.4523,47.0128,289.3103,1,2,3,1,1,0,0,256.4523,237.5884,2.3501,-18.8639,20,
120,1,2,2,64,0,319.2054,76.7725,167.1503,0,0,0,3,0,0,0,167.1503,107.3605,2.4668,-59.7899,0,
120,1,2,2,65,1,289.8173,135.4295,167.5025,2,3,1,2,1,0,0,135.4295,111.0837,2.3417,-24.3458,10,
120,1,2,2,66,1,46.5193,197.4165,346.6891,2,3,1,2,1,0,0,197.4165,163.6018,3.0585,-33.8147,0,
120,1,2,2,67,1,79.9262,107.7974,169.668,1,2,3,1,1,0,0,79.9262,53.9394,1.7251,-25.9868,10,
120,1,2,2,68,1,135.5422,165.1806,228.0905,1,2,3,1,1,0,0,135.5422,144.4163,2.2918,8.8742,30,
120,1,2,2,69,0,259.4502,346.651,166.1485,0,0,0,1,0,0,0,259.4502,240.5964,1.7002,-18.8538,20,
120,1,2,2,70,0,135.5697,19.8928,79.243,0,0,0,2,0,0,0,19.8928,121.2912,2.1586,101.3984,0,
120,1,2,2,71,1,285.5402,17.2994,137.2544,1,3,2,1,1,0,0,285.5402,236.1395,1.1833,-49.4007,0,
120,1,2,2,72,0,138.7045,347.534,165.9996,0,0,0,2,0,0,0,347.534,330.1881,2.7001,-17.3459,20,
120,1,2,2,73,1,169.3879,345.0718,46.4715,1,2,3,2,0,1,0,345.0718,NaN,100000,999,0,
120,1,2,2,74,1,227.7164,78.5126,19.7822,1,3,2,2,0,0,1,78.5126,60.4053,1.3751,-18.1073,20,
120,1,2,2,75,1,78.8751,319.5709,48.9128,1,3,2,1,1,0,0,78.8751,246.8498,1.2167,167.9747,0,
120,1,2,2,76,0,48.4957,168.9813,137.2079,0,0,0,1,0,0,0,48.4957,61.6633,2.3252,13.1676,20,
120,1,2,2,77,1,315.7287,287.9252,345.3668,3,1,2,2,0,0,1,287.9252,314.8244,2.5835,26.8992,10,
120,1,2,2,78,0,286.8252,226.5457,315.6046,0,0,0,1,0,0,0,286.8252,301.5873,2.8585,14.7621,20,
120,1,2,2,79,0,256.6999,319.2336,46.2303,0,0,0,3,0,0,0,46.2303,59.873,1.4,13.6427,20,
120,1,2,2,80,1,135.68,78.9445,105.462,1,3,2,1,1,0,0,135.68,102.7104,1.3917,-32.9696,0,
120,1,2,2,81,1,75.0988,319.8215,349.8519,1,2,3,1,1,0,0,75.0988,98.7678,2.4919,23.669,10,
120,1,2,2,82,1,19.6916,226.2771,107.6658,3,2,1,3,1,0,0,107.6658,311.4458,1.8834,-156.22,0,
120,1,2,2,83,0,138.9798,226.1669,78.0042,0,0,0,3,0,0,0,78.0042,80.3953,1.6834,2.3911,40,
120,1,2,2,84,1,346.4868,16.9821,317.1038,2,1,3,3,0,0,1,317.1038,315.246,1.5417,-1.8578,40,
120,1,2,2,85,1,317.7541,79.3545,195.2113,1,3,2,1,1,0,0,317.7541,234.3847,1.1085,-83.3693,0,
120,1,2,2,86,1,47.5997,169.9459,257.4496,1,2,3,1,1,0,0,47.5997,115.4171,2.5169,67.8174,0,
120,1,2,2,87,0,79.0846,195.9474,105.6185,0,0,0,2,0,0,0,195.9474,104.1039,3.0501,-91.8435,0,
120,1,2,2,88,1,76.6599,319.1987,286.8586,3,1,2,3,1,0,0,286.8586,297.0687,1.1168,10.2101,30,
120,1,2,2,89,1,135.784,76.6302,46.5703,1,2,3,1,1,0,0,135.784,140.1677,1.15,4.3837,30,
120,1,2,2,90,0,286.0726,228.3995,167.7865,0,0,0,2,0,0,0,228.3995,222.0113,2.4002,-6.3883,30,
120,1,2,2,91,1,287.0116,195.9092,139.2813,3,2,1,1,0,0,1,287.0116,298.1745,1.5751,11.1629,30,
120,1,2,2,92,1,225.9992,318.0367,107.7152,3,2,1,3,1,0,0,107.7152,101.4775,2.0668,-6.2377,30,
120,1,2,2,93,0,48.791,169.4352,15.344,0,0,0,1,0,0,0,48.791,46.5298,1.6669,-2.2611,40,
120,1,2,2,94,0,16.9081,317.8384,169.4393,0,0,0,3,0,0,0,169.4393,184.8722,1.9668,15.4329,20,
120,1,2,2,95,0,139.6308,166.4925,256.6904,0,0,0,1,0,0,0,139.6308,103.9123,2.2501,-35.7186,0,
120,1,2,2,96,0,346.3991,77.235,47.9379,0,0,0,3,0,0,0,47.9379,45.5135,1.7834,-2.4244,40,
120,1,2,2,97,0,349.442,316.1658,289.308,0,0,0,2,0,0,0,316.1658,308.5261,1.3001,-7.6397,30,
120,1,2,2,98,1,287.6372,108.625,348.0371,2,1,3,1,0,1,0,287.6372,NaN,100000,999,0,
120,1,2,2,99,1,349.0746,135.7025,259.3993,2,3,1,3,0,1,0,259.3993,NaN,100000,999,0,
120,1,2,2,100,0,15.4219,229.8604,285.1573,0,0,0,1,0,0,0,15.4219,19.1414,2.6834,3.7196,30,
120,1,2,2,101,1,318.2673,77.4483,349.8643,3,1,2,3,1,0,0,349.8643,20.9462,1.6501,31.0819,0,
120,1,2,2,102,1,287.6205,225.601,105.889,3,2,1,2,0,1,0,225.601,NaN,100000,999,0,
120,1,2,2,103,1,77.9122,257.105,345.4603,1,2,3,1,1,0,0,77.9122,75.8325,2.7251,-2.0796,40,
120,1,2,2,104,0,15.8762,165.966,258.0821,0,0,0,2,0,0,0,165.966,217.2502,3.5169,51.2842,0,
120,1,2,2,105,0,288.861,317.3768,18.4045,0,0,0,2,0,0,0,317.3768,303.8544,2.6585,-13.5224,20,
120,1,2,2,106,1,139.1315,79.956,197.6197,1,3,2,1,1,0,0,139.1315,126.5408,1.1084,-12.5907,20,
120,1,2,2,107,1,317.3578,347.715,225.2985,1,2,3,2,0,1,0,347.715,NaN,100000,999,0,
120,1,2,2,108,1,79.1667,256.0186,227.7221,3,2,1,1,0,0,1,79.1667,69.1439,1.3835,-10.0229,30,
120,1,2,2,109,1,165.6614,49.3524,348.0148,1,3,2,1,1,0,0,165.6614,153.873,1.5668,-11.7884,30,
120,1,2,2,110,0,76.8968,319.3234,17.0998,0,0,0,2,0,0,0,319.3234,328.6129,1.4252,9.2895,30,
120,1,2,2,111,1,349.1405,287.5372,16.8308,3,1,2,1,0,1,0,349.1405,NaN,100000,999,0,
120,1,2,2,112,1,167.8456,109.3752,136.7429,3,2,1,1,0,0,1,167.8456,168.0009,1.1167,0.15532,40,
120,1,2,2,113,1,17.3376,75.7067,45.3407,2,1,3,2,1,0,0,75.7067,70.1057,1.4918,-5.6009,30,
120,1,2,2,114,0,346.2021,48.4245,319.1963,0,0,0,2,0,0,0,48.4245,343.5126,1.9418,-64.9119,0,
120,1,2,2,115,0,316.9479,48.8765,285.8968,0,0,0,1,0,0,0,316.9479,340.7357,2.9669,23.7878,10,
120,1,2,2,116,0,169.6136,317.8213,17.1573,0,0,0,2,0,0,0,317.8213,341.6249,1.9168,23.8036,10,
120,1,2,2,117,1,79.9629,257.2792,17.1302,3,1,2,3,1,0,0,17.1302,51.3886,1.1335,34.2584,0,
120,1,2,2,118,0,348.4165,318.0428,46.0983,0,0,0,1,0,0,0,348.4165,1.2275,4.1002,12.8109,20,
120,1,2,2,119,0,169.7606,319.8793,345.1546,0,0,0,1,0,0,0,169.7606,158.659,1.8834,-11.1016,30,
120,1,2,2,120,0,196.2163,77.8571,319.9086,0,0,0,2,0,0,0,77.8571,227.0291,2.2585,149.172,0,
120,1,3,1,121,0,315.19,49.7712,258.7119,0,0,0,2,0,0,0,49.7712,300.6204,1.1916,-109.1509,0,
120,1,3,1,122,0,256.3059,75.474,107.2548,0,0,0,1,0,0,0,256.3059,244.8892,1.4835,-11.4167,30,
120,1,3,1,123,1,46.3872,285.0305,346.8736,2,1,3,2,1,0,0,285.0305,301.897,1.4083,16.8664,20,
120,1,3,1,124,0,105.9184,319.3083,75.1632,0,0,0,1,0,0,0,105.9184,121.0594,1.9084,15.141,20,
120,1,3,1,125,1,106.5588,195.2766,18.769,3,2,1,3,1,0,0,18.769,32.4584,2.5166,13.6895,20,
120,1,3,1,126,1,139.8817,17.9662,316.522,2,3,1,1,0,0,1,139.8817,134.2517,1.5667,-5.63,30,
120,1,3,1,127,1,108.4447,349.7301,229.3677,3,1,2,3,1,0,0,229.3677,220.0502,1.5668,-9.3174,30,
120,1,3,1,128,1,319.9646,15.8124,75.5678,1,2,3,1,1,0,0,319.9646,322.0352,2.9668,2.0706,40,
120,1,3,1,129,0,317.5047,196.66,135.8694,0,0,0,1,0,0,0,317.5047,325.7553,2.0917,8.2506,30,
120,1,3,1,130,0,287.6892,169.3546,108.6142,0,0,0,1,0,0,0,287.6892,283.0105,2.0834,-4.6788,30,
120,1,3,1,131,1,347.3686,289.756,46.2448,2,1,3,2,1,0,0,289.756,313.838,3.9668,24.082,10,
120,1,3,1,132,1,167.2609,19.246,46.9522,2,1,3,2,1,0,0,19.246,36.4929,1.15,17.2469,20,
120,1,3,1,133,1,197.6056,138.8715,165.6013,1,2,3,1,1,0,0,197.6056,209.3882,1.2583,11.7826,30,
120,1,3,1,134,1,167.5071,256.385,287.6698,1,2,3,2,0,1,0,256.385,255.8558,1.6084,-0.52922,40,
120,1,3,1,135,1,75.2679,196.8753,288.875,1,2,3,3,0,0,1,288.875,273.2705,1.6585,-15.6045,20,
120,1,3,1,136,0,197.5604,348.6066,259.6442,0,0,0,1,0,0,0,197.5604,201.4986,1.4667,3.9382,30,
120,1,3,1,137,0,168.4379,109.9343,348.8497,0,0,0,3,0,0,0,348.8497,337.6076,1.1168,-11.2421,30,
120,1,3,1,138,1,198.6208,258.0684,348.9148,2,3,1,2,1,0,0,258.0684,259.264,1.8418,1.1956,40,
120,1,3,1,139,1,345.3642,288.7561,229.1559,1,2,3,1,1,0,0,345.3642,345.2718,2.2085,-0.092355,40,
120,1,3,1,140,1,229.1626,289.9769,348.2488,1,2,3,2,0,1,0,289.9769,256.497,2.1251,-33.4799,0,
120,1,3,1,141,0,196.0322,256.693,137.8706,0,0,0,1,0,0,0,196.0322,212.7357,2.1419,16.7035,20,
120,1,3,1,142,0,137.2949,199.3049,318.3042,0,0,0,2,0,0,0,199.3049,249.2117,2.1417,49.9068,0,
120,1,3,1,143,0,319.5075,166.5917,77.9854,0,0,0,1,0,0,0,319.5075,309.8085,4.1086,-9.699,30,
120,1,3,1,144,1,198.7463,49.2093,255.8344,3,2,1,1,0,0,1,198.7463,210.3828,1.0668,11.6365,30,
120,1,3,1,145,1,47.6562,169.7795,195.3334,1,2,3,1,1,0,0,47.6562,46.7878,2.9835,-0.8684,40,
120,1,3,1,146,0,285.7627,255.7778,345.4478,0,0,0,2,0,0,0,255.7778,232.5766,3.4751,-23.2011,10,
120,1,3,1,147,1,346.1715,287.3235,18.0969,3,2,1,3,1,0,0,18.0969,8.0525,2.2669,-10.0444,30,
120,1,3,1,148,1,286.6012,47.4647,76.1083,1,2,3,2,0,1,0,47.4647,359.8118,1.4417,-47.6528,0,
120,1,3,1,149,0,169.9519,135.1685,257.1213,0,0,0,1,0,0,0,169.9519,180.3837,0.72507,10.4318,30,
120,1,3,1,150,1,135.5186,76.8876,286.3143,2,3,1,2,1,0,0,76.8876,99.2715,2.0668,22.384,10,
120,1,3,1,151,1,136.9241,15.8132,228.9838,2,3,1,1,0,0,1,136.9241,154.1782,0.86681,17.2541,20,
120,1,3,1,152,1,256.3422,16.2905,47.405,1,3,2,1,1,0,0,256.3422,217.1743,1.45,-39.1679,0,
120,1,3,1,153,1,46.019,79.9667,135.4681,3,1,2,3,1,0,0,135.4681,132.5913,2.1835,-2.8768,40,
120,1,3,1,154,1,139.2935,49.6024,78.7542,2,3,1,2,1,0,0,49.6024,53.9815,1.0917,4.3791,30,
120,1,3,1,155,0,287.1087,317.0566,79.7957,0,0,0,2,0,0,0,317.0566,300.4007,2.9002,-16.6559,20,
120,1,3,1,156,0,108.3266,79.8213,348.3558,0,0,0,3,0,0,0,348.3558,15.561,1.6251,27.2053,10,
120,1,3,1,157,1,75.3655,287.9028,346.4351,2,1,3,2,1,0,0,287.9028,310.3894,1.3335,22.4866,10,
120,1,3,1,158,0,198.7184,106.9255,16.2575,0,0,0,3,0,0,0,16.2575,20.2125,2.1918,3.955,30,
120,1,3,1,159,1,19.4394,316.2826,169.834,3,1,2,2,0,0,1,316.2826,314.206,1.8585,-2.0766,40,
120,1,3,1,160,1,198.7854,49.4316,347.3611,1,3,2,1,1,0,0,198.7854,209.0668,2.3336,10.2814,30,
120,1,3,1,161,1,256.8834,287.5216,198.8175,3,2,1,3,1,0,0,198.8175,211.1583,1.7501,12.3409,20,
120,1,3,1,162,1,15.4179,197.5633,289.1643,2,1,3,2,1,0,0,197.5633,217.2449,2.1502,19.6815,20,
120,1,3,1,163,0,225.9814,285.6068,317.7185,0,0,0,3,0,0,0,317.7185,340.595,1.5668,22.8765,10,
120,1,3,1,164,1,226.822,15.8574,348.9768,2,1,3,2,1,0,0,15.8574,16.4434,1.3917,0.58595,40,
120,1,3,1,165,0,108.4765,49.8046,227.7316,0,0,0,2,0,0,0,49.8046,37.5355,1.1917,-12.2691,20,
120,1,3,1,166,1,139.2915,349.5471,169.8083,2,1,3,2,1,0,0,349.5471,334.8281,1.4085,-14.719,20,
120,1,3,1,167,0,317.665,166.6339,78.011,0,0,0,3,0,0,0,78.011,102.7078,2.0502,24.6968,10,
120,1,3,1,168,1,45.8568,286.6499,19.8324,3,1,2,1,0,1,0,45.8568,45.2204,2.4252,-0.63642,40,
120,1,3,1,169,1,106.7704,226.3312,346.4575,1,2,3,1,1,0,0,106.7704,122.7944,1.9168,16.024,20,
120,1,3,1,170,0,49.4181,287.1224,18.0363,0,0,0,1,0,0,0,49.4181,112.3026,2.0251,62.8846,0,
120,1,3,1,171,1,17.7364,197.7674,108.1529,2,3,1,2,1,0,0,197.7674,222.9304,1.8919,25.163,10,
120,1,3,1,172,1,345.4081,166.3724,229.3376,1,3,2,1,1,0,0,345.4081,331.7963,2.5335,-13.6118,20,
120,1,3,1,173,0,198.8857,346.9197,288.5578,0,0,0,2,0,0,0,346.9197,327.9401,2.5502,-18.9796,20,
120,1,3,1,174,1,285.827,225.908,348.4572,3,2,1,3,1,0,0,348.4572,30.3176,2.5334,41.8604,0,
120,1,3,1,175,1,165.0106,319.7555,18.8315,1,3,2,1,1,0,0,165.0106,153.8061,1.0835,-11.2046,30,
120,1,3,1,176,1,45.903,107.8665,75.8178,2,1,3,3,0,0,1,75.8178,58.0522,1.4835,-17.7657,20,
120,1,3,1,177,1,46.1465,285.9111,225.8318,2,3,1,2,1,0,0,285.9111,304.1999,3.0335,18.2887,20,
120,1,3,1,178,0,108.3036,169.7062,19.8785,0,0,0,2,0,0,0,169.7062,196.9339,2.0001,27.2277,10,
120,1,3,1,179,0,259.2268,109.3944,138.7309,0,0,0,2,0,0,0,109.3944,115.112,1.7084,5.7176,30,
120,1,3,1,180,1,17.2394,78.5482,169.7217,2,1,3,3,0,0,1,169.7217,168.444,2.1919,-1.2777,40,
120,1,4,1,181,0,228.2734,195.1307,18.9289,0,0,0,3,0,0,0,18.9289,44.2395,1.3667,25.3106,10,
120,1,4,1,182,0,109.9695,258.0224,229.7245,0,0,0,2,0,0,0,258.0224,295.5619,2.5001,37.5395,0,
120,1,4,1,183,1,285.552,166.0832,199.0551,1,3,2,3,0,1,0,199.0551,200.5842,1.8502,1.5291,40,
120,1,4,1,184,1,108.221,255.3397,226.0396,1,3,2,2,0,0,1,255.3397,260.6554,2.3084,5.3157,30,
120,1,4,1,185,1,319.6343,15.0415,79.1231,3,2,1,3,1,0,0,79.1231,57.0252,1.9085,-22.098,10,
120,1,4,1,186,0,289.6135,166.6016,349.2877,0,0,0,1,0,0,0,289.6135,254.7266,3.2836,-34.8869,0,
120,1,4,1,187,0,135.0642,315.9331,77.4262,0,0,0,2,0,0,0,315.9331,315.2722,1.9751,-0.66081,40,
120,1,4,1,188,1,137.8393,227.1325,45.3812,2,1,3,2,1,0,0,227.1325,221.9682,1.9584,-5.1643,30,
120,1,4,1,189,0,169.7982,15.4454,288.9887,0,0,0,1,0,0,0,169.7982,172.4539,1.0001,2.6557,40,
120,1,4,1,190,0,137.5494,76.9126,259.5274,0,0,0,3,0,0,0,259.5274,254.9951,1.3752,-4.5323,30,
120,1,4,1,191,0,345.9222,75.2283,289.4252,0,0,0,3,0,0,0,289.4252,294.0664,0.6584,4.6412,30,
120,1,4,1,192,1,48.1135,105.3177,286.8675,2,3,1,2,1,0,0,105.3177,128.693,1.0834,23.3753,10,
120,1,4,1,193,1,76.7084,347.7434,17.3027,1,2,3,1,1,0,0,76.7084,113.7525,1.4418,37.0441,0,
120,1,4,1,194,1,257.1951,105.7453,195.1414,2,1,3,2,1,0,0,105.7453,108.6722,1.8835,2.9269,40,
120,1,4,1,195,0,317.404,105.3326,79.4889,0,0,0,2,0,0,0,105.3326,117.6137,1.3334,12.2811,20,
120,1,4,1,196,0,76.7007,169.5946,107.2813,0,0,0,3,0,0,0,107.2813,84.3937,1.6668,-22.8877,10,
120,1,4,1,197,0,347.9954,168.0078,108.2471,0,0,0,3,0,0,0,108.2471,97.2899,2.5084,-10.9572,30,
120,1,4,1,198,0,136.8788,169.3173,286.4599,0,0,0,1,0,0,0,136.8788,122.9408,2.4918,-13.938,20,
120,1,4,1,199,1,196.4215,17.1766,229.5188,1,3,2,1,1,0,0,196.4215,203.8758,1.4668,7.4544,30,
120,1,4,1,200,1,287.6707,136.834,196.8197,2,1,3,1,0,1,0,287.6707,289.4917,1.6418,1.821,40,
120,1,4,1,201,1,229.9196,49.8989,16.2508,2,3,1,2,1,0,0,49.8989,59.9791,1.8001,10.0801,30,
120,1,4,1,202,0,195.0178,169.0762,228.1921,0,0,0,2,0,0,0,169.0762,200.2155,2.0335,31.1393,0,
120,1,4,1,203,0,257.3316,289.7577,49.825,0,0,0,2,0,0,0,289.7577,320.2176,2.2001,30.4599,0,
120,1,4,1,204,0,259.0554,288.5523,139.8512,0,0,0,3,0,0,0,139.8512,129.9537,1.5251,-9.8975,30,
120,1,4,1,205,1,286.2257,165.3206,76.3157,1,2,3,2,0,1,0,165.3206,142.0189,2.5169,-23.3017,10,
120,1,4,1,206,1,315.0382,228.0546,17.0404,3,2,1,1,0,0,1,315.0382,312.296,4.0419,-2.7422,40,
120,1,4,1,207,1,108.5521,168.4433,16.6047,1,2,3,1,1,0,0,108.5521,108.6445,2.1418,0.092355,40,
120,1,4,1,208,1,75.8955,138.1723,319.8148,3,2,1,1,0,0,1,75.8955,72.8663,1.9168,-3.0292,30,
120,1,4,1,209,1,169.5658,108.4126,319.7337,1,2,3,1,1,0,0,169.5658,153.534,1.3251,-16.0318,20,
120,1,4,1,210,0,315.4142,19.752,75.0819,0,0,0,3,0,0,0,75.0819,64.1411,1.5417,-10.9407,30,
120,1,4,1,211,1,317.3943,106.5406,48.7222,2,3,1,3,0,1,0,48.7222,65.0591,2.5918,16.3369,20,
120,1,4,1,212,1,286.3409,257.7512,45.9026,3,2,1,1,0,0,1,286.3409,275.7483,1.6584,-10.5926,30,
120,1,4,1,213,1,77.0324,49.759,139.5599,1,3,2,1,1,0,0,77.0324,48.9498,2.0835,-28.0825,10,
120,1,4,1,214,0,318.0144,166.8875,138.3247,0,0,0,1,0,0,0,318.0144,307.7916,2.4751,-10.2228,30,
120,1,4,1,215,1,198.4041,109.616,45.7642,2,3,1,3,0,1,0,45.7642,63.178,2.2834,17.4138,20,
120,1,4,1,216,1,45.5504,196.3961,258.8382,1,2,3,1,1,0,0,45.5504,49.2483,2.4085,3.6979,30,
120,1,4,1,217,1,226.2324,48.3037,346.647,2,3,1,2,1,0,0,48.3037,51.4828,2.4168,3.1792,30,
120,1,4,1,218,0,49.0048,137.7749,107.0944,0,0,0,2,0,0,0,137.7749,134.5099,1.5918,-3.265,30,
120,1,4,1,219,0,167.4934,18.693,255.0638,0,0,0,1,0,0,0,167.4934,166.3061,1.2334,-1.1873,40,
120,1,4,1,220,0,288.6709,195.521,228.9629,0,0,0,2,0,0,0,195.521,157.4022,1.6334,-38.1189,0,
120,1,4,1,221,0,165.2439,196.5692,108.2082,0,0,0,2,0,0,0,196.5692,201.2596,1.5501,4.6905,30,
120,1,4,1,222,0,48.3979,197.8389,288.2589,0,0,0,3,0,0,0,288.2589,299.5867,0.71681,11.3278,30,
120,1,4,1,223,1,109.8933,45.5568,136.9804,1,3,2,1,1,0,0,109.8933,122.7756,1.4417,12.8823,20,
120,1,4,1,224,1,78.9946,289.6512,345.0236,1,3,2,1,1,0,0,78.9946,112.0346,1.2251,33.04,0,
120,1,4,1,225,1,165.1751,197.0274,76.2483,3,1,2,3,1,0,0,76.2483,62.242,2.0167,-14.0064,20,
120,1,4,1,226,0,138.6715,347.4974,169.7165,0,0,0,3,0,0,0,169.7165,156.8135,2.2001,-12.903,20,
120,1,4,1,227,1,167.6721,77.1758,345.7885,2,3,1,2,1,0,0,77.1758,348.6979,1.5585,-88.4779,0,
120,1,4,1,228,0,79.4084,198.6705,227.0322,0,0,0,2,0,0,0,198.6705,26.7748,1.7752,-171.8957,0,
120,1,4,1,229,1,256.2999,78.9343,137.5579,2,3,1,1,0,0,1,256.2999,250.775,1.8834,-5.5249,30,
120,1,4,1,230,1,258.2465,78.8143,167.8784,1,2,3,1,1,0,0,258.2465,232.3473,1.4251,-25.8992,10,
120,1,4,1,231,0,315.1631,197.1487,45.1863,0,0,0,3,0,0,0,45.1863,44.7412,1.425,-0.44514,40,
120,1,4,1,232,0,166.0708,105.0193,259.4029,0,0,0,2,0,0,0,105.0193,122.3332,1.6168,17.3139,20,
120,1,4,1,233,0,285.4293,17.6559,49.4428,0,0,0,1,0,0,0,285.4293,314.2134,2.2251,28.784,10,
120,1,4,1,234,1,137.0614,166.811,48.907,3,2,1,3,1,0,0,48.907,34.2452,1.8167,-14.6618,20,
120,1,4,1,235,0,258.397,19.884,195.6273,0,0,0,3,0,0,0,195.6273,215.9048,1.8502,20.2775,20,
120,1,4,1,236,0,167.6627,229.6285,109.4954,0,0,0,3,0,0,0,109.4954,129.5244,2.1584,20.029,20,
120,1,4,1,237,1,289.3028,79.6955,258.401,1,3,2,3,0,1,0,258.401,251.1839,1.3335,-7.2171,30,
120,1,4,1,238,1,167.6572,228.169,345.0705,2,1,3,2,1,0,0,228.169,233.2497,2.4751,5.0807,30,
120,1,4,1,239,1,78.7617,259.4745,169.2092,1,2,3,1,1,0,0,78.7617,67.6334,1.8751,-11.1282,30,
120,1,4,1,240,1,138.6643,105.5838,18.7302,2,1,3,1,0,1,0,138.6643,124.4088,1.3168,-14.2555,20,
120,1,5,1,241,1,167.0559,316.1824,255.9753,2,1,3,2,1,0,0,316.1824,321.2858,1.8251,5.1034,30,
120,1,5,1,242,1,225.5146,49.9844,196.7948,1,2,3,1,1,0,0,225.5146,214.8453,1.1918,-10.6693,30,
120,1,5,1,243,1,77.9323,198.8902,258.6385,2,1,3,2,1,0,0,198.8902,171.1167,2.7253,-27.7735,10,
120,1,5,1,244,1,228.7567,317.6118,347.4522,1,2,3,2,0,1,0,317.6118,307.5001,1.7918,-10.1117,30,
120,1,5,1,245,1,16.2011,225.3515,286.5002,3,1,2,3,1,0,0,286.5002,286.7177,1.2916,0.21745,40,
120,1,5,1,246,0,166.4226,49.1528,229.0918,0,0,0,1,0,0,0,166.4226,140.0973,1.4584,-26.3252,10,
120,1,5,1,247,1,48.2004,108.9378,136.35,3,2,1,3,1,0,0,136.35,128.3909,1.4667,-7.9591,30,
120,1,5,1,248,1,135.4472,258.6564,229.5193,1,2,3,3,0,0,1,229.5193,233.2138,1.3501,3.6945,30,
120,1,5,1,249,1,139.9175,46.2417,348.0318,3,1,2,2,0,0,1,46.2417,59.441,1.5834,13.1992,20,
120,1,5,1,250,1,287.9163,196.3027,345.4241,2,1,3,1,0,1,0,287.9163,270.3492,1.7334,-17.5671,20,
120,1,5,1,251,0,199.6498,106.4098,345.8444,0,0,0,1,0,0,0,199.6498,199.2481,1.6085,-0.40168,40,
120,1,5,1,252,0,169.1344,316.5048,346.9194,0,0,0,3,0,0,0,346.9194,328.4025,1.1501,-18.5169,20,
120,1,5,1,253,0,195.6162,138.6794,225.7831,0,0,0,2,0,0,0,138.6794,149.3478,2.0251,10.6684,30,
120,1,5,1,254,1,105.6737,316.6189,199.7527,3,2,1,1,0,0,1,105.6737,120.5827,1.3085,14.9089,20,
120,1,5,1,255,0,319.0859,286.8877,49.863,0,0,0,1,0,0,0,319.0859,313.554,2.6584,-5.5319,30,
120,1,5,1,256,1,169.9745,197.4529,47.5173,3,2,1,1,0,0,1,169.9745,151.3103,1.4252,-18.6643,20,
120,1,5,1,257,1,108.6293,256.6972,346.3634,3,1,2,3,1,0,0,346.3634,344.2339,1.4417,-2.1295,40,
120,1,5,1,258,1,315.1454,285.681,18.4728,1,3,2,2,0,0,1,285.681,273.4422,2.1252,-12.2388,20,
120,1,5,1,259,0,345.3735,195.9123,165.1584,0,0,0,2,0,0,0,195.9123,202.0735,1.7001,6.1612,30,
120,1,5,1,260,1,48.6624,345.8147,229.6054,1,3,2,3,0,1,0,229.6054,255.6934,2.1751,26.088,10,
120,1,5,1,261,1,75.0066,49.9063,17.851,1,3,2,1,1,0,0,75.0066,70.2338,2.6668,-4.7728,30,
120,1,5,1,262,1,108.7804,256.4412,78.0309,1,3,2,1,1,0,0,108.7804,84.6141,1.8918,-24.1662,10,
120,1,5,1,263,0,136.1479,165.0346,318.8332,0,0,0,2,0,0,0,165.0346,119.0832,1.7335,-45.9514,0,
120,1,5,1,264,1,197.5948,19.1099,348.1851,3,1,2,2,0,0,1,19.1099,148.2252,1.4502,129.1153,0,
120,1,5,1,265,0,107.0495,196.8559,226.1343,0,0,0,1,0,0,0,107.0495,125.4286,1.2418,18.3791,20,
120,1,5,1,266,0,168.9651,139.0778,48.7606,0,0,0,3,0,0,0,48.7606,57.9676,1.4001,9.207,30,
120,1,5,1,267,0,317.7818,139.8454,168.4456,0,0,0,1,0,0,0,317.7818,327.7905,2.9668,10.0087,30,
120,1,5,1,268,0,345.0331,197.9865,288.2959,0,0,0,2,0,0,0,197.9865,200.4467,3.0418,2.4602,40,
120,1,5,1,269,1,168.9406,229.348,288.9377,2,3,1,2,1,0,0,229.348,318.1846,4.567,88.8366,0,
120,1,5,1,270,0,165.9414,106.621,288.5802,0,0,0,1,0,0,0,165.9414,175.1385,1.1084,9.1971,30,
120,1,5,1,271,1,168.5983,256.5138,47.2951,3,1,2,3,1,0,0,47.2951,66.5732,1.7669,19.2781,20,
120,1,5,1,272,1,17.1214,319.5277,287.0866,3,1,2,3,1,0,0,287.0866,302.7316,0.7834,15.645,20,
120,1,5,1,273,1,285.9294,16.4572,317.3083,2,3,1,2,1,0,0,16.4572,326.6549,2.1168,-49.8023,0,
120,1,5,1,274,1,135.8698,195.5877,105.8702,3,2,1,3,1,0,0,105.8702,113.4296,1.5751,7.5594,30,
120,1,5,1,275,0,107.3868,259.4494,195.3254,0,0,0,1,0,0,0,107.3868,94.5591,2.0001,-12.8277,20,
120,1,5,1,276,0,136.9238,347.8132,168.1692,0,0,0,3,0,0,0,168.1692,127.7532,1.9751,-40.416,0,
120,1,5,1,277,0,227.7422,136.0392,108.9229,0,0,0,1,0,0,0,227.7422,238.9042,2.2918,11.162,30,
120,1,5,1,278,1,138.9978,348.9808,289.7704,3,1,2,3,1,0,0,289.7704,285.39,1.7251,-4.3805,30,
120,1,5,1,279,1,136.8617,167.0285,17.1941,1,3,2,1,1,0,0,136.8617,124.679,1.6667,-12.1827,20,
120,1,5,1,280,1,318.5183,259.5948,138.3004,1,3,2,1,1,0,0,318.5183,318.781,2.4751,0.26279,40,
120,1,5,1,281,0,225.1476,257.3617,288.3922,0,0,0,1,0,0,0,225.1476,227.9462,1.8835,2.7986,40,
120,1,5,1,282,1,19.5042,105.6908,48.9704,3,1,2,3,1,0,0,48.9704,45.2369,1.7584,-3.7334,30,
120,1,5,1,283,1,45.9366,77.7282,136.2756,3,1,2,1,0,1,0,45.9366,27.1877,2.3917,-18.7489,20,
120,1,5,1,284,1,169.4306,45.747,257.1734,3,1,2,3,1,0,0,257.1734,235.9669,1.4001,-21.2065,10,
120,1,5,1,285,1,287.5569,16.0754,106.7305,1,3,2,3,0,1,0,106.7305,107.1997,2.5334,0.46911,40,
120,1,5,1,286,0,287.3987,75.9933,316.1951,0,0,0,3,0,0,0,316.1951,296.962,1.3835,-19.233,20,
120,1,5,1,287,1,259.6331,285.4745,76.8771,2,3,1,3,0,1,0,76.8771,67.6426,1.3167,-9.2345,30,
120,1,5,1,288,0,197.3872,316.5277,47.5817,0,0,0,3,0,0,0,47.5817,31.252,1.3,-16.3297,20,
120,1,5,1,289,0,319.7979,108.851,79.3751,0,0,0,1,0,0,0,319.7979,301.0361,2.4252,-18.7619,20,
120,1,5,1,290,0,16.3184,229.58,348.0752,0,0,0,2,0,0,0,229.58,222.0982,3.0418,-7.4818,30,
120,1,5,1,291,1,347.7596,17.0191,198.7506,3,1,2,3,1,0,0,198.7506,203.1409,1.7584,4.3903,30,
120,1,5,1,292,1,229.2868,75.9901,315.778,2,3,1,2,1,0,0,75.9901,58.9983,0.77511,-16.9917,20,
120,1,5,1,293,1,76.7418,17.4316,258.3976,1,3,2,1,1,0,0,76.7418,105.7187,2.1335,28.9769,10,
120,1,5,1,294,0,139.9652,345.4822,196.5657,0,0,0,2,0,0,0,345.4822,325.9784,1.7086,-19.5038,20,
120,1,5,1,295,0,258.5304,135.1951,198.0815,0,0,0,3,0,0,0,198.0815,214.5673,1.45,16.4858,20,
120,1,5,1,296,0,79.9196,45.2887,106.9827,0,0,0,1,0,0,0,79.9196,115.5488,1.6251,35.6291,0,
120,1,5,1,297,1,139.4131,317.1872,79.1748,1,2,3,1,1,0,0,139.4131,135.7484,1.4501,-3.6647,30,
120,1,5,1,298,1,169.0204,227.8133,108.7544,2,1,3,3,0,0,1,108.7544,129.2214,2.1501,20.467,20,
120,1,5,1,299,0,15.6194,315.9312,168.2325,0,0,0,1,0,0,0,15.6194,13.3438,3.2669,-2.2756,40,
120,1,5,1,300,1,108.8763,47.9592,16.8809,2,3,1,2,1,0,0,47.9592,115.6571,1.6918,67.6979,0,
120,1,6,1,301,1,46.9234,135.2004,227.9147,2,3,1,2,1,0,0,135.2004,148.7697,1.4418,13.5693,20,
120,1,6,1,302,1,195.7893,347.5433,258.0165,3,1,2,3,1,0,0,258.0165,234.1619,1.1834,-23.8546,10,
120,1,6,1,303,0,16.8971,197.9642,135.3425,0,0,0,2,0,0,0,197.9642,228.2383,3.5502,30.2741,0,
120,1,6,1,304,1,347.1749,287.7893,258.1939,3,2,1,3,1,0,0,258.1939,240.4234,1.1084,-17.7705,20,
120,1,6,1,305,0,16.4771,196.8306,76.7452,0,0,0,3,0,0,0,76.7452,252.1822,1.3585,175.437,0,
120,1,6,1,306,1,317.1352,167.8886,349.4976,2,1,3,2,1,0,0,167.8886,145.3225,2.5502,-22.5662,10,
120,1,6,1,307,0,349.4673,318.2654,15.2014,0,0,0,2,0,0,0,318.2654,347.4268,1.9751,29.1613,10,
120,1,6,1,308,1,348.6462,168.243,137.3733,3,2,1,3,1,0,0,137.3733,138.0291,1.4751,0.65585,40,
120,1,6,1,309,1,136.4477,45.0925,348.5075,1,3,2,1,1,0,0,136.4477,129.3083,2.2917,-7.1394,30,
120,1,6,1,310,0,315.7111,256.8779,168.9678,0,0,0,2,0,0,0,256.8779,291.1549,1.7752,34.277,0,
120,1,6,1,311,1,169.758,196.7334,286.4866,3,2,1,3,1,0,0,286.4866,274.3898,1.7335,-12.0968,20,
120,1,6,1,312,0,259.5246,346.4085,138.0694,0,0,0,3,0,0,0,138.0694,121.9375,1.6752,-16.1319,20,
120,1,6,1,313,0,225.0449,48.5914,257.2471,0,0,0,2,0,0,0,48.5914,61.2859,0.7001,12.6945,20,
120,1,6,1,314,0,109.9422,346.2555,196.5774,0,0,0,1,0,0,0,109.9422,119.6074,1.3751,9.6653,30,
120,1,6,1,315,1,46.3042,227.4654,109.2792,2,3,1,2,1,0,0,227.4654,250.9692,4.067,23.5038,10,
120,1,6,1,316,0,257.3016,227.5784,76.36,0,0,0,3,0,0,0,76.36,59.4909,1.9668,-16.8691,20,
120,1,6,1,317,0,257.7944,16.1293,135.5226,0,0,0,2,0,0,0,16.1293,24.6347,3.6502,8.5055,30,
120,1,6,1,318,1,19.299,47.9853,288.2738,3,2,1,1,0,0,1,19.299,12.2482,4.6835,-7.0508,30,
120,1,6,1,319,1,195.14,255.3342,79.6353,2,1,3,3,0,0,1,79.6353,74.2294,1.4834,-5.4059,30,
120,1,6,1,320,1,15.1824,255.3184,106.6144,2,1,3,2,1,0,0,255.3184,251.413,1.6501,-3.9055,30,
120,1,6,1,321,1,107.9897,225.1151,19.4971,3,2,1,3,1,0,0,19.4971,39.2462,2.1669,19.7491,20,
120,1,6,1,322,1,197.2525,47.8892,285.3742,1,2,3,2,0,1,0,47.8892,55.2887,0.74173,7.3995,30,
120,1,6,1,323,1,17.2564,316.2498,139.7772,1,3,2,1,1,0,0,17.2564,20.2787,3.5168,3.0224,30,
120,1,6,1,324,0,17.2228,288.1376,347.6732,0,0,0,1,0,0,0,17.2228,5.4882,3.5251,-11.7346,30,
120,1,6,1,325,1,317.5363,165.5686,257.4522,1,2,3,1,1,0,0,317.5363,301.8917,1.6751,-15.6446,20,
120,1,6,1,326,0,47.5541,317.8229,199.9686,0,0,0,1,0,0,0,47.5541,52.7732,1.6669,5.2191,30,
120,1,6,1,327,0,106.6799,75.7242,346.2244,0,0,0,3,0,0,0,346.2244,341.3676,2.8918,-4.8568,30,
120,1,6,1,328,1,169.2888,79.31,346.5665,3,2,1,3,1,0,0,346.5665,328.8471,1.8168,-17.7194,20,
120,1,6,1,329,1,319.3634,106.4291,198.2842,3,1,2,3,1,0,0,198.2842,172.6554,2.9501,-25.6288,10,
120,1,6,1,330,0,349.5954,197.0535,78.6618,0,0,0,2,0,0,0,197.0535,186.7765,2.5752,-10.2771,30,
120,1,6,1,331,1,15.0076,347.81,287.7324,2,3,1,3,0,1,0,287.7324,253.4545,3.2585,-34.2779,0,
120,1,6,1,332,1,285.9061,227.1312,255.4908,3,2,1,3,1,0,0,255.4908,255.5531,1.6918,0.062249,40,
120,1,6,1,333,0,345.6878,197.1204,228.8228,0,0,0,2,0,0,0,197.1204,200.411,2.2918,3.2906,30,
120,1,6,1,334,0,165.8893,259.9342,75.085,0,0,0,3,0,0,0,75.085,60.6945,2.4,-14.3905,20,
120,1,6,1,335,1,18.1545,289.4599,318.367,2,1,3,2,1,0,0,289.4599,304.1211,1.6668,14.6612,20,
120,1,6,1,336,1,227.6908,319.5507,166.7535,2,3,1,2,1,0,0,319.5507,304.0399,1.7833,-15.5108,20,
120,1,6,1,337,1,256.578,109.9701,229.9195,3,1,2,3,1,0,0,229.9195,250.591,2.7752,20.6716,20,
120,1,6,1,338,1,258.626,319.1718,285.0945,1,2,3,1,1,0,0,258.626,252.959,1.4918,-5.6671,30,
120,1,6,1,339,1,289.6574,136.8901,18.0884,3,2,1,2,0,1,0,136.8901,145.3641,1.9002,8.474,30,
120,1,6,1,340,1,107.9087,195.499,225.833,2,1,3,2,1,0,0,195.499,166.9391,1.6251,-28.5599,10,
120,1,6,1,341,0,19.4256,46.0482,167.4018,0,0,0,3,0,0,0,167.4018,167.6361,1.7419,0.23429,40,
120,1,6,1,342,1,78.6958,106.2681,18.5963,3,1,2,2,0,0,1,106.2681,138.8865,1.5334,32.6184,0,
120,1,6,1,343,0,258.1371,347.3141,105.6472,0,0,0,3,0,0,0,105.6472,73.4796,2.5585,-32.1676,0,
120,1,6,1,344,0,229.993,137.5676,346.9392,0,0,0,3,0,0,0,346.9392,315.2544,1.2834,-31.6848,0,
120,1,6,1,345,1,199.8122,16.5687,48.9854,3,2,1,2,0,1,0,16.5687,226.4663,2.0917,-150.1024,0,
120,1,6,1,346,1,49.5963,169.9447,79.663,3,1,2,3,1,0,0,79.663,63.701,1.5752,-15.962,20,
120,1,6,1,347,1,195.941,315.5034,346.4328,3,2,1,3,1,0,0,346.4328,339.4758,1.5418,-6.957,30,
120,1,6,1,348,0,106.7758,228.1557,19.3227,0,0,0,2,0,0,0,228.1557,237.486,2.2084,9.3303,30,
120,1,6,1,349,1,16.1481,136.7947,46.8158,3,1,2,3,1,0,0,46.8158,48.4055,2.4419,1.5896,40,
120,1,6,1,350,0,346.4404,166.8831,225.7325,0,0,0,1,0,0,0,346.4404,325.7989,2.9251,-20.6415,20,
120,1,6,1,351,1,255.7971,226.3939,18.2247,3,1,2,3,1,0,0,18.2247,222.8198,3.5752,-155.4049,0,
120,1,6,1,352,0,75.5483,347.8292,256.3717,0,0,0,3,0,0,0,256.3717,238.4389,1.8418,-17.9327,20,
120,1,6,1,353,1,288.1388,77.2337,19.0555,1,2,3,2,0,1,0,77.2337,336.077,1.4418,-101.1567,0,
120,1,6,1,354,1,196.9487,15.7521,166.6685,2,1,3,3,0,0,1,166.6685,24.3003,2.4418,-142.3682,0,
120,1,6,1,355,1,106.9478,257.4507,79.4345,1,3,2,1,1,0,0,106.9478,98.0256,1.6084,-8.9222,30,
120,1,6,1,356,0,319.31,345.6282,258.2279,0,0,0,1,0,0,0,319.31,314.6608,1.8752,-4.6491,30,
120,1,6,1,357,1,138.9567,288.2831,107.7184,1,3,2,3,0,1,0,107.7184,94.7373,1.8334,-12.9811,20,
120,1,6,1,358,1,315.156,289.1379,16.3213,2,3,1,3,0,1,0,16.3213,166.9709,2.0418,150.6496,0,
120,1,6,1,359,1,258.0154,135.9201,225.4373,1,3,2,2,0,0,1,135.9201,141.1683,1.6668,5.2482,30,
120,1,6,1,360,1,139.5235,198.8365,47.8133,3,1,2,3,1,0,0,47.8133,21.5631,2.0833,-26.2502,10,
120,1,7,2,361,0,137.7436,195.0777,75.4734,0,0,0,2,0,0,0,195.0777,163.5542,1.5085,-31.5235,0,
120,1,7,2,362,1,256.7246,198.4634,348.583,2,3,1,2,1,0,0,198.4634,202.6711,1.9251,4.2077,30,
120,1,7,2,363,1,135.1638,79.2181,258.8515,3,2,1,2,0,1,0,79.2181,NaN,100000,999,0,
120,1,7,2,364,1,318.2542,229.9111,195.9692,2,1,3,2,1,0,0,229.9111,236.2222,1.8834,6.3111,30,
120,1,7,2,365,1,108.4551,288.2361,228.1172,1,2,3,1,1,0,0,108.4551,118.1949,1.1833,9.7398,30,
120,1,7,2,366,1,346.1287,288.3308,49.3567,3,1,2,3,1,0,0,49.3567,47.0756,2.2835,-2.2811,40,
120,1,7,2,367,0,228.7525,46.6696,168.1642,0,0,0,2,0,0,0,46.6696,46.8667,1.3501,0.19706,40,
120,1,7,2,368,1,226.3755,139.1398,258.9639,1,2,3,1,1,0,0,226.3755,226.1667,1.5668,-0.20878,40,
120,1,7,2,369,0,79.0965,319.6324,17.5706,0,0,0,1,0,0,0,79.0965,104.4394,1.7668,25.3429,10,
120,1,7,2,370,0,319.6235,15.2778,76.9202,0,0,0,2,0,0,0,15.2778,354.6128,1.2668,-20.6649,20,
120,1,7,2,371,1,319.6585,285.5445,48.2585,2,3,1,2,1,0,0,285.5445,333.7701,1.5335,48.2256,0,
120,1,7,2,372,1,106.2626,258.2717,15.3005,2,1,3,2,1,0,0,258.2717,243.3886,2.7668,-14.8831,20,
120,1,7,2,373,1,49.0672,258.9382,345.6216,3,2,1,3,1,0,0,345.6216,328.1698,1.3668,-17.4518,20,
120,1,7,2,374,1,166.1154,197.5488,18.9387,2,3,1,2,1,0,0,197.5488,195.8946,1.55,-1.6542,40,
120,1,7,2,375,1,135.6449,196.0742,226.4641,2,1,3,2,1,0,0,196.0742,204.9307,2.0501,8.8565,30,
120,1,7,2,376,0,258.7972,46.9971,227.8371,0,0,0,3,0,0,0,227.8371,77.9394,1.7252,-149.8977,0,
120,1,7,2,377,1,19.3937,136.9647,106.2132,2,3,1,1,0,0,1,19.3937,206.5043,1.9334,-172.8894,0,
120,1,7,2,378,1,198.1299,16.6345,346.5555,1,3,2,1,1,0,0,198.1299,200.0813,1.4668,1.9514,40,
120,1,7,2,379,0,255.9533,317.2465,78.8433,0,0,0,2,0,0,0,317.2465,121.5114,1.4918,164.2649,0,
120,1,7,2,380,1,106.7368,288.8994,198.5417,2,1,3,2,1,0,0,288.8994,118.9889,1.0084,-169.9106,0,
120,1,7,2,381,0,226.6913,289.8702,169.7739,0,0,0,3,0,0,0,169.7739,165.2992,3.3668,-4.4747,30,
120,1,7,2,382,1,75.0635,45.6611,226.9403,2,3,1,3,0,1,0,226.9403,NaN,100000,999,0,
120,1,7,2,383,0,195.7207,48.1759,349.0121,0,0,0,1,0,0,0,195.7207,168.8705,1.5667,-26.8501,10,
120,1,7,2,384,1,135.4763,286.2294,199.6733,3,1,2,1,0,1,0,135.4763,NaN,100000,999,0,
120,1,7,2,385,1,107.2227,346.6329,286.4365,3,2,1,1,0,0,1,107.2227,150.2163,1.6084,42.9936,0,
120,1,7,2,386,0,167.3073,257.9357,47.388,0,0,0,1,0,0,0,167.3073,135.1109,1.0251,-32.1964,0,
120,1,7,2,387,1,105.1816,45.943,347.8877,1,3,2,1,1,0,0,105.1816,150.4086,1.6085,45.227,0,
120,1,7,2,388,0,197.7527,139.9306,168.4489,0,0,0,2,0,0,0,139.9306,202.2492,1.5668,62.3187,0,
120,1,7,2,389,0,106.463,49.1621,137.8526,0,0,0,3,0,0,0,137.8526,111.7655,2.9835,-26.0872,10,
120,1,7,2,390,1,18.0356,289.7875,76.6533,2,1,3,2,1,0,0,289.7875,305.4306,3.2003,15.6431,20,
120,1,7,2,391,1,45.3576,315.0784,289.8684,3,2,1,3,1,0,0,289.8684,299.0387,1.2168,9.1703,30,
120,1,7,2,392,1,78.5901,105.9445,317.1697,3,1,2,2,0,0,1,105.9445,313.5111,2.6419,-152.4334,0,
120,1,7,2,393,0,319.7139,18.3713,226.9283,0,0,0,2,0,0,0,18.3713,335.4019,1.575,-42.9694,0,
120,1,7,2,394,1,196.9913,225.6865,319.7638,2,3,1,1,0,0,1,196.9913,202.9579,1.2335,5.9665,30,
120,1,7,2,395,1,75.4069,138.9374,255.872,1,2,3,3,0,0,1,255.872,281.0063,1.0667,25.1343,10,
120,1,7,2,396,1,347.3247,229.1204,79.3594,2,3,1,3,0,1,0,79.3594,NaN,100000,999,0,
120,1,7,2,397,1,199.4692,169.205,48.4164,1,2,3,1,1,0,0,199.4692,209.938,1.5418,10.4687,30,
120,1,7,2,398,1,106.0224,15.3143,48.1119,3,2,1,3,1,0,0,48.1119,223.6404,1.4334,175.5285,0,
120,1,7,2,399,0,347.7221,289.2307,45.2035,0,0,0,2,0,0,0,289.2307,303.4765,1.4751,14.2458,20,
120,1,7,2,400,0,288.0459,259.8347,198.8666,0,0,0,3,0,0,0,198.8666,209.3123,1.6918,10.4457,30,
120,1,7,2,401,1,138.5923,169.9766,75.4185,3,1,2,3,1,0,0,75.4185,86.7378,1.8168,11.3193,30,
120,1,7,2,402,0,138.4918,47.2984,315.7883,0,0,0,2,0,0,0,47.2984,56.0789,1.5667,8.7805,30,
120,1,7,2,403,1,318.6274,135.6952,168.1628,1,3,2,1,1,0,0,318.6274,311.8679,3.4753,-6.7596,30,
120,1,7,2,404,1,198.2711,316.0916,345.5957,1,3,2,1,1,0,0,198.2711,202.3368,1.8335,4.0656,30,
120,1,7,2,405,0,19.5455,197.2517,168.7432,0,0,0,2,0,0,0,197.2517,217.3565,2.5834,20.1049,20,
120,1,7,2,406,1,196.9978,48.2766,317.8342,2,3,1,3,0,1,0,317.8342,NaN,100000,999,0,
120,1,7,2,407,1,18.4428,258.0195,106.9348,2,3,1,1,0,0,1,18.4428,26.8832,2.9251,8.4405,30,
120,1,7,2,408,0,18.089,137.9711,318.3294,0,0,0,3,0,0,0,318.3294,316.9079,1.7418,-1.4214,40,
120,1,7,2,409,0,285.4329,319.6342,15.7424,0,0,0,3,0,0,0,15.7424,332.8268,1.3584,-42.9156,0,
120,1,7,2,410,1,167.2618,137.6668,287.6333,3,2,1,3,1,0,0,287.6333,344.6076,1.525,56.9743,0,
120,1,7,2,411,1,257.6176,76.6841,136.6619,2,1,3,1,0,1,0,257.6176,NaN,100000,999,0,
120,1,7,2,412,1,318.6127,255.6712,169.2655,2,1,3,2,1,0,0,255.6712,254.3259,2.2668,-1.3453,40,
120,1,7,2,413,0,195.6399,167.3218,78.713,0,0,0,3,0,0,0,78.713,76.634,1.7918,-2.0789,40,
120,1,7,2,414,0,255.0215,348.2625,136.8484,0,0,0,3,0,0,0,136.8484,119.4293,2.0004,-17.4192,20,
120,1,7,2,415,1,169.2599,195.5886,108.2863,2,1,3,1,0,1,0,169.2599,NaN,100000,999,0,
120,1,7,2,416,0,108.0519,256.2399,137.5898,0,0,0,3,0,0,0,137.5898,122.9271,1.5918,-14.6627,20,
120,1,7,2,417,1,315.776,79.9704,137.2512,2,1,3,3,0,0,1,137.2512,132.329,2.8918,-4.9222,30,
120,1,7,2,418,0,109.5576,45.6649,285.2108,0,0,0,1,0,0,0,109.5576,125.206,1.2585,15.6484,20,
120,1,7,2,419,1,285.9982,227.6508,348.1368,1,2,3,1,1,0,0,285.9982,278.5944,1.775,-7.4038,30,
120,1,7,2,420,1,285.1161,195.8806,349.3046,1,2,3,3,0,0,1,349.3046,338.5526,1.7084,-10.752,30,
120,1,8,2,421,0,139.1592,226.9724,75.4832,0,0,0,1,0,0,0,139.1592,130.1071,0.87498,-9.0521,30,
120,1,8,2,422,0,258.0006,19.9983,285.6459,0,0,0,3,0,0,0,285.6459,119.6864,2.1085,-165.9595,0,
120,1,8,2,423,0,347.863,79.9688,136.8148,0,0,0,2,0,0,0,79.9688,103.456,1.1584,23.4872,10,
120,1,8,2,424,0,138.8927,289.0539,347.4898,0,0,0,1,0,0,0,138.8927,123.4431,1.1084,-15.4496,20,
120,1,8,2,425,1,139.122,45.8653,229.3182,2,3,1,2,1,0,0,45.8653,35.5707,1.1334,-10.2946,30,
120,1,8,2,426,1,138.0311,78.9619,49.1808,3,1,2,2,0,0,1,78.9619,119.121,1.4501,40.1591,0,
120,1,8,2,427,0,46.1867,195.6983,256.1037,0,0,0,1,0,0,0,46.1867,223.7014,1.4917,177.5147,0,
120,1,8,2,428,1,346.4768,289.5354,227.4644,2,1,3,2,1,0,0,289.5354,281.0341,1.9251,-8.5013,30,
120,1,8,2,429,1,47.187,79.2999,15.0445,2,1,3,2,1,0,0,79.2999,56.4254,0.70004,-22.8745,10,
120,1,8,2,430,1,79.2645,348.4328,109.7906,2,1,3,2,1,0,0,348.4328,160.2622,1.6084,171.8294,0,
120,1,8,2,431,1,166.9384,345.2837,198.4479,1,3,2,1,1,0,0,166.9384,171.887,1.6001,4.9487,30,
120,1,8,2,432,1,46.1005,196.179,169.0506,1,2,3,2,0,1,0,196.179,NaN,100000,999,0,
120,1,8,2,433,0,285.1488,259.3335,319.4721,0,0,0,1,0,0,0,285.1488,267.7028,1.425,-17.446,20,
120,1,8,2,434,1,315.0558,256.1726,168.5349,1,3,2,1,1,0,0,315.0558,323.9454,2.2084,8.8896,30,
120,1,8,2,435,0,138.3282,106.1507,49.0244,0,0,0,3,0,0,0,49.0244,85.6511,1.7251,36.6266,0,
120,1,8,2,436,0,167.1549,138.8245,349.9823,0,0,0,3,0,0,0,349.9823,31.1358,1.7918,41.1535,0,
120,1,8,2,437,1,107.9765,77.5306,228.882,1,2,3,2,0,1,0,77.5306,NaN,100000,999,0,
120,1,8,2,438,1,165.7078,228.0405,49.6531,2,1,3,1,0,1,0,165.7078,NaN,100000,999,0,
120,1,8,2,439,1,348.1345,49.685,316.5997,3,1,2,3,1,0,0,316.5997,114.449,1.5001,157.8493,0,
120,1,8,2,440,1,75.7592,348.6651,45.1985,1,3,2,2,0,0,1,348.6651,339.4949,1.3502,-9.1702,30,
120,1,8,2,441,0,166.6833,319.4168,46.6683,0,0,0,1,0,0,0,166.6833,176.9128,1.4751,10.2295,30,
120,1,8,2,442,0,78.6986,197.224,109.252,0,0,0,2,0,0,0,197.224,175.8082,1.3585,-21.4157,10,
120,1,8,2,443,1,227.4811,166.4383,105.9151,2,3,1,2,1,0,0,166.4383,195.3323,1.8419,28.894,10,
120,1,8,2,444,0,226.7599,195.5008,288.965,0,0,0,3,0,0,0,288.965,213.2182,1.4334,-75.7468,0,
120,1,8,2,445,1,228.4323,319.7786,106.5395,3,1,2,3,1,0,0,106.5395,74.5822,2.4585,-31.9574,0,
120,1,8,2,446,1,79.7326,317.4622,348.7411,2,1,3,2,1,0,0,317.4622,119.1497,1.3501,161.6875,0,
120,1,8,2,447,0,45.9115,197.797,18.1324,0,0,0,2,0,0,0,197.797,199.393,2.7418,1.596,40,
120,1,8,2,448,1,18.6621,168.1551,287.341,1,3,2,3,0,1,0,287.341,NaN,100000,999,0,
120,1,8,2,449,1,136.0884,285.0426,346.5031,3,1,2,3,1,0,0,346.5031,347.3018,1.7584,0.79871,40,
120,1,8,2,450,1,315.1533,349.0435,225.2357,3,1,2,1,0,1,0,315.1533,NaN,100000,999,0,
120,1,8,2,451,1,138.6936,315.0693,168.3956,3,1,2,3,1,0,0,168.3956,151.8816,2.6836,-16.514,20,
120,1,8,2,452,1,46.0342,105.1868,78.3168,1,3,2,1,1,0,0,46.0342,53.1615,2.5585,7.1273,30,
120,1,8,2,453,1,165.0947,45.9217,15.1337,3,1,2,3,1,0,0,15.1337,33.7781,1.8667,18.6444,20,
120,1,8,2,454,1,348.5217,318.8731,289.1133,2,1,3,1,0,1,0,348.5217,NaN,100000,999,0,
120,1,8,2,455,1,139.6704,47.9709,317.9655,1,2,3,1,1,0,0,139.6704,162.474,1.4417,22.8036,10,
120,1,8,2,456,1,286.0016,45.0729,168.8158,1,3,2,3,0,1,0,168.8158,NaN,100000,999,0,
120,1,8,2,457,0,195.2941,256.1198,15.8399,0,0,0,1,0,0,0,195.2941,202.8964,1.7751,7.6022,30,
120,1,8,2,458,1,138.5184,169.1855,258.6365,3,2,1,1,0,0,1,138.5184,91.2072,2.4252,-47.3112,0,
120,1,8,2,459,0,19.902,108.5641,259.1282,0,0,0,1,0,0,0,19.902,191.9942,1.6502,172.0923,0,
120,1,8,2,460,1,108.5872,226.0126,318.2188,3,1,2,3,1,0,0,318.2188,297.4616,1.4335,-20.7572,20,
120,1,8,2,461,0,19.6597,105.4666,288.6939,0,0,0,2,0,0,0,105.4666,117.4299,1.4751,11.9633,30,
120,1,8,2,462,1,109.9663,18.7877,196.3753,1,2,3,2,0,1,0,18.7877,NaN,100000,999,0,
120,1,8,2,463,0,139.1878,168.7421,197.9193,0,0,0,3,0,0,0,197.9193,211.3509,1.2667,13.4316,20,
120,1,8,2,464,0,136.7104,259.36,16.3401,0,0,0,1,0,0,0,136.7104,131.7693,1.4252,-4.9412,30,
120,1,8,2,465,1,136.4382,79.6219,316.4924,2,1,3,2,1,0,0,79.6219,104.7876,1.225,25.1657,10,
120,1,8,2,466,1,196.6333,136.0981,167.5911,2,1,3,3,0,0,1,167.5911,163.5539,1.7585,-4.0372,30,
120,1,8,2,467,1,226.3809,318.4812,259.4068,2,1,3,2,1,0,0,318.4812,332.176,1.6167,13.6948,20,
120,1,8,2,468,1,18.9916,169.3163,138.9898,1,3,2,1,1,0,0,18.9916,34.3921,3.7169,15.4005,20,
120,1,8,2,469,1,15.3526,75.3001,108.3079,3,1,2,3,1,0,0,108.3079,102.5647,2.7503,-5.7432,30,
120,1,8,2,470,0,46.2786,346.8916,169.9687,0,0,0,1,0,0,0,46.2786,28.6085,2.5502,-17.6701,20,
120,1,8,2,471,1,345.2622,106.6171,78.9984,3,2,1,1,0,0,1,345.2622,333.2348,1.9502,-12.0274,20,
120,1,8,2,472,0,348.2674,166.2214,78.7896,0,0,0,3,0,0,0,78.7896,84.974,1.3584,6.1844,30,
120,1,8,2,473,1,106.559,257.9588,76.8881,1,3,2,1,1,0,0,106.559,87.905,1.1085,-18.654,20,
120,1,8,2,474,0,317.6116,229.0412,257.2379,0,0,0,3,0,0,0,257.2379,249.2794,1.3918,-7.9585,30,
120,1,8,2,475,0,287.5106,197.8513,19.2574,0,0,0,1,0,0,0,287.5106,296.8165,2.5668,9.3059,30,
120,1,8,2,476,1,227.7234,199.2796,318.2134,3,1,2,3,1,0,0,318.2134,308.9779,0.70846,-9.2355,30,
120,1,8,2,477,1,76.0947,286.1864,255.0432,2,3,1,2,1,0,0,286.1864,329.2218,1.7585,43.0354,0,
120,1,8,2,478,0,317.4562,198.8708,225.7391,0,0,0,3,0,0,0,225.7391,216.648,1.6168,-9.091,30,
120,1,8,2,479,0,46.7157,195.3171,168.0624,0,0,0,1,0,0,0,46.7157,63.6511,1.7668,16.9354,20,
120,1,8,2,480,1,285.5423,79.2688,319.5543,2,1,3,2,1,0,0,79.2688,123.7675,1.8585,44.4987,0,
