Subject,Session,Block,Condition,Trial,whetherCued,leftStim,rightStim,midStim,remCueLoc,fogCueLoc,neutralCueLoc,probeCueLoc,probeRem,probeForget,probeNeutral,Target,Estimate,RT,Error,Points
121,1,1,1,1,1,285.3167,75.3195,349.6993,2,3,1,2,1,0,0,75.3195,71.1879,1.1729,-4.1316,30,
121,1,1,1,2,0,317.7602,47.7922,225.3341,0,0,0,2,0,0,0,47.7922,64.8788,0.78469,17.0866,20,
121,1,1,1,3,1,345.9818,317.6386,285.7384,3,1,2,1,0,1,0,345.9818,179.7502,1.5967,-166.2317,0,
121,1,1,1,4,1,15.6096,196.4513,135.3117,1,2,3,1,1,0,0,15.6096,178.8092,0.58329,163.1997,0,
121,1,1,1,5,1,46.0894,18.765,77.5992,3,1,2,3,1,0,0,77.5992,44.3668,0.083261,-33.2324,0,
121,1,1,1,6,1,136.9584,228.1068,79.8258,1,2,3,1,1,0,0,136.9584,134.3607,0.81244,-2.5977,40,
121,1,1,1,7,0,289.1912,319.5068,107.2497,0,0,0,1,0,0,0,289.1912,298.4806,1.9166,9.2895,30,
121,1,1,1,8,1,49.572,257.4728,198.5512,2,1,3,2,1,0,0,257.4728,236.385,1.243,-21.0878,10,
121,1,1,1,9,0,165.1693,347.2055,255.6489,0,0,0,3,0,0,0,255.6489,278.9715,1.826,23.3226,10,
121,1,1,1,10,0,228.007,199.7351,258.1561,0,0,0,3,0,0,0,258.1561,256.3994,0.95822,-1.7567,40,
121,1,1,1,11,1,47.5178,139.5352,315.6181,2,3,1,3,0,1,0,315.6181,344.4222,1.6037,28.8041,10,
121,1,1,1,12,1,48.1707,168.8863,199.4925,3,2,1,3,1,0,0,199.4925,207.5505,1.1526,8.058,30,
121,1,1,1,13,1,45.8059,17.0895,196.8453,1,2,3,1,1,0,0,45.8059,76.4489,1.1315,30.6431,0,
121,1,1,1,14,1,226.5243,18.8994,167.4361,2,1,3,2,1,0,0,18.8994,55.1489,1.1736,36.2495,0,
121,1,1,1,15,1,107.2871,288.6659,137.7912,3,2,1,2,0,1,0,288.6659,239.4179,2.3956,-49.248,0,
121,1,1,1,16,1,345.9916,285.1034,258.9614,2,3,1,1,0,0,1,345.9916,306.2834,1.7988,-39.7083,0,
121,1,1,1,17,0,17.4427,165.3267,137.2849,0,0,0,1,0,0,0,17.4427,23.1238,4.7009,5.6811,30,
121,1,1,1,18,1,225.5959,45.6461,285.3898,2,1,3,2,1,0,0,45.6461,59.4815,1.3819,13.8354,20,
121,1,1,1,19,0,345.5065,167.3447,108.5532,0,0,0,1,0,0,0,345.5065,177.4812,1.1665,-168.0253,0,
121,1,1,1,20,1,195.0114,49.7227,228.9624,1,3,2,1,1,0,0,195.0114,180.6611,0.92352,-14.3503,20,
121,1,1,1,21,1,318.2166,139.1068,106.8927,2,3,1,1,0,0,1,318.2166,309.2382,1.6735,-8.9784,30,
121,1,1,1,22,0,18.1388,289.0957,195.9448,0,0,0,2,0,0,0,289.0957,296.2807,1.6249,7.185,30,
121,1,1,1,23,0,229.4223,166.7051,346.0256,0,0,0,1,0,0,0,229.4223,193.9278,1.6318,-35.4945,0,
121,1,1,1,24,1,49.0602,75.163,347.0752,3,1,2,3,1,0,0,347.0752,288.1544,1.9372,-58.9209,0,
121,1,1,1,25,0,346.1367,139.5344,49.3449,0,0,0,3,0,0,0,49.3449,293.1569,1.1874,-116.188,0,
121,1,1,1,26,1,77.8374,108.2883,348.4279,2,1,3,1,0,1,0,77.8374,53.1701,2.0345,-24.6673,10,
121,1,1,1,27,1,77.0033,256.8647,17.2163,1,3,2,1,1,0,0,77.0033,69.1209,2.0623,-7.8824,30,
121,1,1,1,28,1,288.4182,45.772,199.8716,2,1,3,3,0,0,1,199.8716,290.1429,0.85392,90.2713,0,
121,1,1,1,29,1,255.4666,286.0334,316.5138,1,2,3,2,0,1,0,286.0334,296.8006,1.2708,10.7672,30,
121,1,1,1,30,0,167.4432,225.3904,107.6503,0,0,0,3,0,0,0,107.6503,85.1919,2.1663,-22.4584,10,
121,1,1,1,31,0,348.6538,109.5044,167.3202,0,0,0,1,0,0,0,348.6538,349.9682,1.9024,1.3144,40,
121,1,1,1,32,1,255.7227,348.6468,197.4114,1,3,2,1,1,0,0,255.7227,195.709,0.72908,-60.0137,0,
121,1,1,1,33,1,106.2995,48.3854,347.5991,1,2,3,3,0,0,1,347.5991,338.2268,1.1874,-9.3724,30,
121,1,1,1,34,1,48.8653,16.9624,78.0265,1,3,2,1,1,0,0,48.8653,55.6886,1.7984,6.8234,30,
121,1,1,1,35,0,75.5347,288.3139,139.7729,0,0,0,3,0,0,0,139.7729,104.5961,1.5068,-35.1767,0,
121,1,1,1,36,1,229.6057,109.4654,319.9859,1,3,2,3,0,1,0,319.9859,309.5446,1.6738,-10.4413,30,
121,1,1,1,37,1,259.233,18.9726,109.5014,3,1,2,3,1,0,0,109.5014,100.9863,1.7286,-8.5151,30,
121,1,1,1,38,0,256.0912,315.4982,168.0975,0,0,0,3,0,0,0,168.0975,120.1933,3.3261,-47.9043,0,
121,1,1,1,39,0,165.5577,17.8966,139.3519,0,0,0,2,0,0,0,17.8966,290.8884,1.4929,-87.0083,0,
121,1,1,1,40,1,139.5455,346.0382,196.9103,1,2,3,2,0,1,0,346.0382,348.6979,1.5488,2.6598,40,
121,1,1,1,41,1,226.8033,199.4036,348.7218,1,2,3,2,0,1,0,199.4036,199.0877,2.5136,-0.31586,40,
121,1,1,1,42,0,258.5107,76.1986,169.7974,0,0,0,3,0,0,0,169.7974,308.3486,1.2291,138.5512,0,
121,1,1,1,43,1,46.1226,316.3501,257.0922,1,2,3,1,1,0,0,46.1226,336.4987,1.8537,-69.6239,0,
121,1,1,1,44,1,138.3904,287.1424,258.274,3,1,2,3,1,0,0,258.274,53.9357,1.4719,155.6617,0,
121,1,1,1,45,0,286.8174,107.1734,348.438,0,0,0,2,0,0,0,107.1734,318.0782,0.90271,-149.0952,0,
121,1,1,1,46,1,15.6333,107.5663,138.5797,2,3,1,2,1,0,0,107.5663,116.2338,1.597,8.6675,30,
121,1,1,1,47,1,257.6019,319.4264,18.2413,1,2,3,1,1,0,0,257.6019,235.5763,1.7012,-22.0257,10,
121,1,1,1,48,0,46.4256,137.6475,317.7992,0,0,0,1,0,0,0,46.4256,60.8669,2.8469,14.4413,20,
121,1,1,1,49,0,348.2232,319.9007,165.5086,0,0,0,2,0,0,0,319.9007,324.7731,1.6804,4.8724,30,
121,1,1,1,50,1,49.2794,288.072,15.5871,3,1,2,3,1,0,0,15.5871,52.3448,1.3054,36.7578,0,
121,1,1,1,51,1,315.4042,227.0562,48.5632,3,2,1,3,1,0,0,48.5632,55.8312,1.3054,7.2681,30,
121,1,1,1,52,0,258.014,17.9574,166.1263,0,0,0,1,0,0,0,258.014,240.5978,1.1177,-17.4162,20,
121,1,1,1,53,1,46.9871,225.5229,135.9693,3,2,1,3,1,0,0,135.9693,48.8136,1.354,-87.1557,0,
121,1,1,1,54,1,316.1599,105.8405,255.1336,2,3,1,2,1,0,0,105.8405,104.5838,1.2849,-1.2567,40,
121,1,1,1,55,1,137.1783,255.6832,346.4986,3,1,2,3,1,0,0,346.4986,58.849,1.5415,72.3504,0,
121,1,1,1,56,1,226.1171,48.3665,259.0939,3,1,2,3,1,0,0,259.0939,246.2913,1.854,-12.8026,20,
121,1,1,1,57,0,167.0201,195.2052,76.4691,0,0,0,3,0,0,0,76.4691,302.7745,1.3679,-133.6946,0,
121,1,1,1,58,1,17.6756,106.6678,139.2734,3,1,2,1,0,1,0,17.6756,53.7454,2.3261,36.0698,0,
121,1,1,1,59,1,168.6383,19.2866,139.9592,3,1,2,2,0,0,1,19.2866,108.8121,1.2429,89.5255,0,
121,1,1,1,60,0,109.1686,49.0772,256.6198,0,0,0,2,0,0,0,49.0772,58.4117,2.2498,9.3345,30,
121,1,2,1,61,1,135.2687,168.1844,109.8019,2,1,3,2,1,0,0,168.1844,243.1212,1.3749,74.9368,0,
121,1,2,1,62,1,198.5914,169.7232,105.4389,3,1,2,3,1,0,0,105.4389,76.5679,0.79897,-28.871,10,
121,1,2,1,63,1,166.5304,259.8329,315.6497,1,3,2,2,0,0,1,259.8329,79.292,1.2911,179.4591,0,
121,1,2,1,64,1,348.519,288.9045,17.8242,1,3,2,1,1,0,0,348.519,349.6612,1.6109,1.1422,40,
121,1,2,1,65,1,47.4122,17.1561,228.4941,3,1,2,3,1,0,0,228.4941,222.8256,1.3266,-5.6685,30,
121,1,2,1,66,1,48.834,319.4916,78.8341,2,3,1,2,1,0,0,319.4916,344.1134,1.6387,24.6218,10,
121,1,2,1,67,0,259.652,137.2348,49.1694,0,0,0,3,0,0,0,49.1694,68.8583,1.0416,19.6888,20,
121,1,2,1,68,0,77.4526,227.0373,345.4197,0,0,0,2,0,0,0,227.0373,236.703,1.0832,9.6657,30,
121,1,2,1,69,0,107.4171,288.4239,317.4001,0,0,0,3,0,0,0,317.4001,61.018,0.90924,103.6179,0,
121,1,2,1,70,0,106.8887,256.3605,45.6265,0,0,0,1,0,0,0,106.8887,110.6105,1.0623,3.7217,30,
121,1,2,1,71,1,76.054,256.3269,109.9659,2,1,3,2,1,0,0,256.3269,247.5781,1.1249,-8.7488,30,
121,1,2,1,72,1,256.552,16.7177,75.3811,1,2,3,3,0,0,1,75.3811,75.2052,1.2568,-0.17592,40,
121,1,2,1,73,1,107.8588,347.9646,138.4931,3,2,1,1,0,0,1,107.8588,359.2778,1.7499,-108.581,0,
121,1,2,1,74,0,137.135,109.5651,19.4866,0,0,0,2,0,0,0,109.5651,306.4455,0.95824,-163.1196,0,
121,1,2,1,75,1,286.221,47.191,168.6755,2,3,1,2,1,0,0,47.191,68.2559,0.46514,21.0649,10,
121,1,2,1,76,0,318.3402,105.7629,255.3135,0,0,0,1,0,0,0,318.3402,336.6128,1.847,18.2727,20,
121,1,2,1,77,0,106.6075,289.4992,167.7106,0,0,0,2,0,0,0,289.4992,327.4006,1.3469,37.9014,0,
121,1,2,1,78,1,316.3664,228.7335,77.4394,2,3,1,2,1,0,0,228.7335,281.9773,1.3749,53.2438,0,
121,1,2,1,79,0,108.9941,167.0244,137.4118,0,0,0,3,0,0,0,137.4118,129.0558,1.5692,-8.356,30,
121,1,2,1,80,1,228.6191,18.284,77.5739,3,1,2,1,0,1,0,228.6191,354.8652,1.4374,126.2461,0,
121,1,2,1,81,1,349.2665,317.3364,49.1836,3,2,1,3,1,0,0,49.1836,234.4363,1.2152,-174.7473,0,
121,1,2,1,82,1,317.5743,19.9949,76.8866,3,1,2,3,1,0,0,76.8866,231.3664,0.81918,154.4798,0,
121,1,2,1,83,0,106.4416,15.825,77.2793,0,0,0,1,0,0,0,106.4416,62.1989,1.7571,-44.2427,0,
121,1,2,1,84,1,46.3343,225.3428,16.568,2,3,1,1,0,0,1,46.3343,59.6327,1.5553,13.2984,20,
121,1,2,1,85,0,106.3698,138.2755,77.0353,0,0,0,1,0,0,0,106.3698,111.8419,1.2151,5.4721,30,
121,1,2,1,86,1,229.4564,256.0814,18.4177,3,2,1,3,1,0,0,18.4177,15.0656,1.6666,-3.3522,30,
121,1,2,1,87,0,47.0084,136.669,256.3379,0,0,0,3,0,0,0,256.3379,236.5517,1.5067,-19.7862,20,
121,1,2,1,88,0,165.9694,259.0404,49.9282,0,0,0,3,0,0,0,49.9282,51.3185,1.4651,1.3903,40,
121,1,2,1,89,0,286.3771,227.098,17.985,0,0,0,2,0,0,0,227.098,296.1564,1.1805,69.0584,0,
121,1,2,1,90,1,165.3123,15.8923,106.6913,3,2,1,3,1,0,0,106.6913,69.4056,1.8883,-37.2857,0,
121,1,2,1,91,0,47.5111,168.683,225.5606,0,0,0,1,0,0,0,47.5111,63.27,1.7082,15.7589,20,
121,1,2,1,92,1,76.4371,229.5997,165.0303,1,3,2,1,1,0,0,76.4371,67.4877,2.4231,-8.9494,30,
121,1,2,1,93,1,105.6268,287.1495,255.0818,1,3,2,1,1,0,0,105.6268,112.9405,1.4371,7.3137,30,
121,1,2,1,94,0,226.0151,18.975,199.8729,0,0,0,2,0,0,0,18.975,288.6934,1.4512,-90.2816,0,
121,1,2,1,95,1,257.4089,287.2294,198.9909,2,3,1,2,1,0,0,287.2294,342.2544,1.0274,55.025,0,
121,1,2,1,96,1,345.3147,139.6001,199.5308,2,3,1,1,0,0,1,345.3147,354.6594,1.8123,9.3448,30,
121,1,2,1,97,0,257.2098,349.198,168.0913,0,0,0,3,0,0,0,168.0913,125.1721,1.2499,-42.9192,0,
121,1,2,1,98,1,285.0765,318.7534,75.3106,3,2,1,3,1,0,0,75.3106,67.0775,1.3189,-8.2331,30,
121,1,2,1,99,1,196.6344,135.5152,166.8521,1,2,3,1,1,0,0,196.6344,188.5797,0.59735,-8.0547,30,
121,1,2,1,100,0,256.9666,17.1023,225.6856,0,0,0,3,0,0,0,225.6856,219.6367,1.7154,-6.0489,30,
121,1,2,1,101,1,48.808,348.2557,16.7554,2,1,3,3,0,0,1,16.7554,203.7165,1.229,-173.0389,0,
121,1,2,1,102,1,196.7117,317.8315,258.2726,2,1,3,2,1,0,0,317.8315,349.9566,1.396,32.1251,0,
121,1,2,1,103,0,109.5259,166.3226,229.7491,0,0,0,2,0,0,0,166.3226,342.112,0.88881,175.7894,0,
121,1,2,1,104,0,49.6735,226.8027,199.7386,0,0,0,1,0,0,0,49.6735,57.3034,1.7567,7.6299,30,
121,1,2,1,105,0,17.5412,259.2672,48.419,0,0,0,2,0,0,0,259.2672,247.6725,1.3197,-11.5947,30,
121,1,2,1,106,1,76.3878,165.5043,317.4946,1,3,2,1,1,0,0,76.3878,56.7069,2.2709,-19.6809,20,
121,1,2,1,107,0,317.5248,288.6106,258.8055,0,0,0,2,0,0,0,288.6106,284.8199,1.2151,-3.7906,30,
121,1,2,1,108,0,225.586,76.8997,48.8242,0,0,0,2,0,0,0,76.8997,73.0509,2.1595,-3.8488,30,
121,1,2,1,109,0,105.5768,227.506,289.0846,0,0,0,1,0,0,0,105.5768,122.2219,1.3401,16.6451,20,
121,1,2,1,110,1,77.625,287.6556,349.3669,1,2,3,1,1,0,0,77.625,78.0896,1.4443,0.46457,40,
121,1,2,1,111,1,48.7756,137.6306,169.2506,2,1,3,1,0,1,0,48.7756,82.193,1.4374,33.4174,0,
121,1,2,1,112,1,196.7002,228.3195,48.6368,2,1,3,2,1,0,0,228.3195,335.2981,1.6805,106.9786,0,
121,1,2,1,113,0,15.5643,198.2512,75.9544,0,0,0,1,0,0,0,15.5643,195.2863,1.1249,179.7219,0,
121,1,2,1,114,0,228.9358,345.9675,77.6546,0,0,0,3,0,0,0,77.6546,58.8651,1.5624,-18.7895,20,
121,1,2,1,115,0,258.7655,168.5152,106.2331,0,0,0,3,0,0,0,106.2331,80.9669,1.2358,-25.2662,10,
121,1,2,1,116,0,15.5148,79.4181,107.6112,0,0,0,1,0,0,0,15.5148,78.9426,1.5276,63.4277,0,
121,1,2,1,117,1,109.1522,198.3681,315.6973,2,3,1,2,1,0,0,198.3681,60.556,0.77816,-137.8121,0,
121,1,2,1,118,0,256.5109,226.4726,136.2991,0,0,0,2,0,0,0,226.4726,242.068,1.1665,15.5954,20,
121,1,2,1,119,0,285.2877,135.1063,76.449,0,0,0,2,0,0,0,135.1063,307.7321,0.93737,172.6258,0,
121,1,2,1,120,1,346.9215,226.6007,256.9667,2,1,3,2,1,0,0,226.6007,220.7348,0.75681,-5.866,30,
121,1,3,2,121,0,259.1155,19.3721,79.9918,0,0,0,3,0,0,0,79.9918,53.5633,1.666,-26.4285,10,
121,1,3,2,122,1,228.6716,19.9273,318.4939,1,2,3,2,0,1,0,19.9273,NaN,100000,999,0,
121,1,3,2,123,0,16.7771,137.1919,319.5439,0,0,0,3,0,0,0,319.5439,70.0686,1.1111,110.5247,0,
121,1,3,2,124,0,196.9012,286.0929,108.6133,0,0,0,2,0,0,0,286.0929,64.9878,0.67356,138.8949,0,
121,1,3,2,125,1,195.0869,317.356,255.2304,2,1,3,2,1,0,0,317.356,322.5868,0.72253,5.2308,30,
121,1,3,2,126,1,137.7151,286.7856,48.308,1,3,2,1,1,0,0,137.7151,141.4083,0.95131,3.6932,30,
121,1,3,2,127,1,46.9945,226.2444,289.6767,3,2,1,3,1,0,0,289.6767,294.435,1.1667,4.7584,30,
121,1,3,2,128,0,168.1491,257.3251,135.5459,0,0,0,2,0,0,0,257.3251,314.7754,0.9096,57.4504,0,
121,1,3,2,129,1,289.1691,198.0293,47.5896,2,3,1,2,1,0,0,198.0293,166.4431,1.2082,-31.5862,0,
121,1,3,2,130,1,285.1747,348.8566,257.7026,3,1,2,2,0,0,1,348.8566,254.7214,1.4096,-94.1352,0,
121,1,3,2,131,0,199.1453,256.9438,225.8421,0,0,0,2,0,0,0,256.9438,274.3912,1.0347,17.4474,20,
121,1,3,2,132,1,317.7223,195.411,107.9906,2,1,3,2,1,0,0,195.411,181.1626,1.1947,-14.2484,20,
121,1,3,2,133,1,18.1363,286.0297,259.9009,1,3,2,2,0,0,1,286.0297,174.0358,1.3957,-111.9939,0,
121,1,3,2,134,1,136.3179,105.8739,316.8431,3,2,1,2,0,1,0,105.8739,NaN,100000,999,0,
121,1,3,2,135,0,136.8066,257.35,315.2939,0,0,0,3,0,0,0,315.2939,316.542,0.84021,1.2481,40,
121,1,3,2,136,0,135.5589,287.4592,77.3078,0,0,0,1,0,0,0,135.5589,105.7961,1.16,-29.7629,10,
121,1,3,2,137,0,77.4983,227.9224,259.6238,0,0,0,3,0,0,0,259.6238,245.2119,1.0276,-14.4119,20,
121,1,3,2,138,1,135.4817,15.6564,288.0495,1,3,2,1,1,0,0,135.4817,130.7118,0.96518,-4.7699,30,
121,1,3,2,139,1,165.5533,138.2034,195.3601,3,1,2,3,1,0,0,195.3601,190.6787,1.7915,-4.6814,30,
121,1,3,2,140,0,226.3889,105.4855,258.9141,0,0,0,1,0,0,0,226.3889,203.6023,1.2082,-22.7865,10,
121,1,3,2,141,1,316.1998,229.638,138.8149,2,1,3,3,0,0,1,138.8149,198.8202,1.7706,60.0053,0,
121,1,3,2,142,1,228.7839,289.0142,349.0156,3,2,1,2,0,1,0,289.0142,NaN,100000,999,0,
121,1,3,2,143,1,47.9719,285.7687,315.3131,2,1,3,3,0,0,1,315.3131,347.5417,2.222,32.2286,0,
121,1,3,2,144,1,15.9456,345.3543,285.1893,1,2,3,1,1,0,0,15.9456,33.1446,1.2984,17.199,20,
121,1,3,2,145,0,257.1512,169.3563,318.5363,0,0,0,2,0,0,0,169.3563,341.2749,1.6734,171.9186,0,
121,1,3,2,146,1,15.2378,49.0018,227.3339,1,3,2,1,1,0,0,15.2378,7.2549,1.5206,-7.9829,30,
121,1,3,2,147,0,316.2021,46.0129,226.7411,0,0,0,1,0,0,0,316.2021,334.321,1.1873,18.1188,20,
121,1,3,2,148,1,45.168,78.0781,195.5609,2,3,1,2,1,0,0,78.0781,59.6044,1.4513,-18.4737,20,
121,1,3,2,149,1,79.0614,18.3341,46.9089,2,1,3,2,1,0,0,18.3341,39.5724,0.84021,21.2383,10,
121,1,3,2,150,1,75.1898,319.612,256.8657,3,1,2,1,0,1,0,75.1898,NaN,100000,999,0,
121,1,3,2,151,1,105.108,136.7051,196.922,2,3,1,2,1,0,0,136.7051,139.6909,1.361,2.9858,40,
121,1,3,2,152,1,195.0824,15.7627,109.4977,1,2,3,1,1,0,0,195.0824,184.8373,1.0833,-10.2451,30,
121,1,3,2,153,1,49.6062,18.9082,286.2096,2,1,3,2,1,0,0,18.9082,49.366,0.868,30.4578,0,
121,1,3,2,154,0,347.6564,78.106,46.4017,0,0,0,2,0,0,0,78.106,58.467,1.3471,-19.639,20,
121,1,3,2,155,0,288.4209,108.74,16.9582,0,0,0,3,0,0,0,16.9582,48.0299,1.1041,31.0717,0,
121,1,3,2,156,1,198.8892,137.8473,165.1055,3,2,1,3,1,0,0,165.1055,162.5674,0.95823,-2.5381,40,
121,1,3,2,157,0,75.1113,106.5056,346.4903,0,0,0,3,0,0,0,346.4903,351.7365,1.5483,5.2462,30,
121,1,3,2,158,1,165.0545,49.0987,195.1713,3,2,1,3,1,0,0,195.1713,187.1384,1.3194,-8.033,30,
121,1,3,2,159,1,109.1325,285.0534,255.4778,3,2,1,3,1,0,0,255.4778,231.0777,1.0762,-24.4001,10,
121,1,3,2,160,0,285.6432,316.1039,257.2678,0,0,0,3,0,0,0,257.2678,238.5748,0.97249,-18.693,20,
121,1,3,2,161,1,106.1674,46.4605,138.3688,2,1,3,2,1,0,0,46.4605,80.6113,0.72909,34.1508,0,
121,1,3,2,162,1,318.877,196.767,139.1947,3,2,1,3,1,0,0,139.1947,130.4706,1.4721,-8.7241,30,
121,1,3,2,163,1,317.6756,17.5867,76.2786,1,3,2,3,0,1,0,76.2786,NaN,100000,999,0,
121,1,3,2,164,1,79.5412,286.426,255.6635,3,1,2,3,1,0,0,255.6635,250.3803,0.72202,-5.2833,30,
121,1,3,2,165,1,19.3541,226.667,47.3152,2,1,3,2,1,0,0,226.667,234.4076,1.1527,7.7407,30,
121,1,3,2,166,1,347.7523,287.8153,316.523,3,2,1,3,1,0,0,316.523,312.0461,0.6944,-4.4769,30,
121,1,3,2,167,1,288.0835,346.0155,108.388,3,2,1,3,1,0,0,108.388,123.1242,1.3197,14.7362,20,
121,1,3,2,168,1,228.9714,17.4431,165.6529,2,1,3,2,1,0,0,17.4431,13.3667,0.74289,-4.0764,30,
121,1,3,2,169,1,197.16,259.6526,137.5394,1,3,2,1,1,0,0,197.16,194.0121,0.9791,-3.1479,30,
121,1,3,2,170,1,286.7386,18.3336,197.2723,2,3,1,2,1,0,0,18.3336,17.6587,1.6178,-0.67486,40,
121,1,3,2,171,0,45.0451,345.8454,256.0319,0,0,0,3,0,0,0,256.0319,52.0424,1.1944,156.0105,0,
121,1,3,2,172,1,76.3501,257.4088,286.1034,3,2,1,3,1,0,0,286.1034,301.8101,0.7222,15.7068,20,
121,1,3,2,173,1,348.0693,226.4195,287.5407,2,3,1,2,1,0,0,226.4195,63.3073,0.6181,-163.1122,0,
121,1,3,2,174,1,47.3497,198.9559,107.0938,3,1,2,3,1,0,0,107.0938,118.2012,1.0068,11.1073,30,
121,1,3,2,175,1,139.5776,257.6101,315.2598,3,1,2,1,0,1,0,139.5776,NaN,100000,999,0,
121,1,3,2,176,1,317.2746,198.2531,169.5221,3,1,2,1,0,1,0,317.2746,NaN,100000,999,0,
121,1,3,2,177,1,78.0946,289.8516,108.346,2,1,3,2,1,0,0,289.8516,311.2397,1.2083,21.388,10,
121,1,3,2,178,0,77.5057,315.7093,347.0319,0,0,0,2,0,0,0,315.7093,346.0841,1.055,30.3747,0,
121,1,3,2,179,1,169.1646,347.5077,255.5137,1,3,2,1,1,0,0,169.1646,178.2406,0.64548,9.076,30,
121,1,3,2,180,0,315.7681,196.5423,75.6546,0,0,0,3,0,0,0,75.6546,46.7999,1.4721,-28.8546,10,
121,1,4,2,181,0,168.0693,198.2604,318.0067,0,0,0,1,0,0,0,168.0693,179.6974,0.7221,11.6281,30,
121,1,4,2,182,0,226.9859,346.3891,136.8093,0,0,0,2,0,0,0,346.3891,64.0148,0.70136,77.6258,0,
121,1,4,2,183,1,108.2279,77.5562,318.3105,2,1,3,2,1,0,0,77.5562,65.8706,0.82594,-11.6856,30,
121,1,4,2,184,1,226.3128,75.3932,316.1006,2,3,1,3,0,1,0,316.1006,NaN,100000,999,0,
121,1,4,2,185,1,225.0231,195.9423,138.8982,2,1,3,2,1,0,0,195.9423,189.4551,1.3194,-6.4872,30,
121,1,4,2,186,1,288.3429,137.1089,198.5138,1,3,2,1,1,0,0,288.3429,287.0006,1.8609,-1.3423,40,
121,1,4,2,187,0,346.2418,138.6184,227.1619,0,0,0,1,0,0,0,346.2418,333.1603,1.8471,-13.0815,20,
121,1,4,2,188,1,136.522,316.7142,48.2967,2,1,3,1,0,1,0,136.522,NaN,100000,999,0,
121,1,4,2,189,0,18.38,319.3721,136.6547,0,0,0,2,0,0,0,319.3721,131.6472,1.1666,172.275,0,
121,1,4,2,190,1,345.7102,136.0875,288.8873,2,1,3,2,1,0,0,136.0875,152.3023,0.62524,16.2148,20,
121,1,4,2,191,1,46.6209,345.8303,319.9904,2,3,1,3,0,1,0,319.9904,NaN,100000,999,0,
121,1,4,2,192,0,227.2501,195.8128,168.8246,0,0,0,2,0,0,0,195.8128,190.2312,1.0832,-5.5815,30,
121,1,4,2,193,0,137.7538,45.1055,348.6839,0,0,0,2,0,0,0,45.1055,55.271,0.8402,10.1655,30,
121,1,4,2,194,0,225.8808,76.1622,348.5751,0,0,0,1,0,0,0,225.8808,219.7163,1.0555,-6.1646,30,
121,1,4,2,195,1,165.3812,286.8469,259.0312,3,2,1,3,1,0,0,259.0312,222.1131,0.97217,-36.9181,0,
121,1,4,2,196,1,285.8175,136.6198,319.0451,1,3,2,1,1,0,0,285.8175,292.1679,1.4234,6.3504,30,
121,1,4,2,197,1,256.5306,136.4539,17.1526,3,1,2,1,0,1,0,256.5306,NaN,100000,999,0,
121,1,4,2,198,1,168.5928,137.1222,46.2418,3,1,2,3,1,0,0,46.2418,23.3141,1.2984,-22.9277,10,
121,1,4,2,199,0,109.2626,289.9196,255.2693,0,0,0,1,0,0,0,109.2626,83.997,1.2501,-25.2656,10,
121,1,4,2,200,1,136.6332,196.8498,317.464,3,1,2,2,0,0,1,196.8498,122.6725,0.97215,-74.1773,0,
121,1,4,2,201,0,15.2638,49.8001,228.361,0,0,0,1,0,0,0,15.2638,66.3218,1.118,51.058,0,
121,1,4,2,202,0,169.6403,19.403,288.0954,0,0,0,2,0,0,0,19.403,120.9099,1.0069,101.5069,0,
121,1,4,2,203,0,107.8175,135.7213,349.2803,0,0,0,1,0,0,0,107.8175,135.6868,0.85407,27.8693,10,
121,1,4,2,204,0,17.5607,137.5771,197.3447,0,0,0,3,0,0,0,197.3447,154.3535,2.0554,-42.9912,0,
121,1,4,2,205,1,15.3174,137.9558,49.4988,2,3,1,1,0,0,1,15.3174,42.5011,1.1319,27.1837,10,
121,1,4,2,206,1,257.6961,289.6863,136.2781,2,3,1,2,1,0,0,289.6863,114.5896,1.0902,-175.0968,0,
121,1,4,2,207,0,228.2249,256.091,138.4745,0,0,0,3,0,0,0,138.4745,75.896,1.0414,-62.5786,0,
121,1,4,2,208,1,19.1114,286.5951,318.2852,1,3,2,1,1,0,0,19.1114,177.2297,0.70866,158.1183,0,
121,1,4,2,209,1,108.1345,49.2601,77.4513,2,1,3,2,1,0,0,49.2601,66.5581,1.2152,17.298,20,
121,1,4,2,210,1,18.7848,106.6625,229.4028,1,3,2,1,1,0,0,18.7848,15.9104,1.8194,-2.8744,40,
121,1,4,2,211,1,108.9877,198.9369,255.4779,2,3,1,2,1,0,0,198.9369,162.1636,0.83326,-36.7733,0,
121,1,4,2,212,1,287.6485,16.1093,108.7409,2,1,3,2,1,0,0,16.1093,2.1036,1.5207,-14.0057,20,
121,1,4,2,213,1,105.0812,136.0001,199.2925,3,2,1,1,0,0,1,105.0812,35.7202,1.4166,-69.361,0,
121,1,4,2,214,0,15.0584,198.6422,47.0765,0,0,0,3,0,0,0,47.0765,36.2439,1.3124,-10.8326,30,
121,1,4,2,215,0,79.6144,317.3332,16.8441,0,0,0,3,0,0,0,16.8441,18.7014,1.3471,1.8573,40,
121,1,4,2,216,0,46.5986,198.3553,347.6198,0,0,0,2,0,0,0,198.3553,194.4207,1.3054,-3.9346,30,
121,1,4,2,217,0,75.0974,348.0374,167.694,0,0,0,2,0,0,0,348.0374,7.191,1.1248,19.1536,20,
121,1,4,2,218,0,229.3881,318.0286,348.2341,0,0,0,1,0,0,0,229.3881,215.9734,3.3399,-13.4147,20,
121,1,4,2,219,1,255.3654,18.7902,135.2536,3,2,1,1,0,0,1,255.3654,50.7373,1.1665,155.3719,0,
121,1,4,2,220,0,319.0146,258.651,168.9736,0,0,0,3,0,0,0,168.9736,338.643,2.1248,169.6694,0,
121,1,4,2,221,1,316.7372,75.6977,286.0812,2,1,3,2,1,0,0,75.6977,63.595,0.68748,-12.1027,20,
121,1,4,2,222,0,45.1275,316.1684,259.8939,0,0,0,1,0,0,0,45.1275,68.4036,0.93742,23.2762,10,
121,1,4,2,223,1,75.7855,108.128,139.6292,1,3,2,2,0,0,1,108.128,259.4071,1.229,151.2791,0,
121,1,4,2,224,1,196.5227,258.358,346.0222,3,1,2,3,1,0,0,346.0222,42.6815,0.92392,56.6593,0,
121,1,4,2,225,1,48.9004,168.5124,227.1034,1,2,3,1,1,0,0,48.9004,52.7185,1.0417,3.8181,30,
121,1,4,2,226,1,317.9409,46.2309,196.9919,3,1,2,3,1,0,0,196.9919,185.9357,1.0832,-11.0563,30,
121,1,4,2,227,1,225.3126,345.1289,316.6706,1,3,2,1,1,0,0,225.3126,210.7827,0.93743,-14.5299,20,
121,1,4,2,228,0,286.9961,135.3096,166.4648,0,0,0,3,0,0,0,166.4648,141.2904,1.0207,-25.1744,10,
121,1,4,2,229,0,229.791,79.0882,287.1195,0,0,0,2,0,0,0,79.0882,69.8675,0.88185,-9.2207,30,
121,1,4,2,230,1,256.2072,168.4799,195.0763,2,1,3,1,0,1,0,256.2072,NaN,100000,999,0,
121,1,4,2,231,1,315.0164,255.2243,165.9456,2,3,1,2,1,0,0,255.2243,69.8214,0.55554,174.5971,0,
121,1,4,2,232,1,346.3173,229.9929,18.5527,2,3,1,2,1,0,0,229.9929,70.4377,0.59009,-159.5553,0,
121,1,4,2,233,0,196.3801,76.5574,288.3328,0,0,0,1,0,0,0,196.3801,177.9047,0.74999,-18.4754,20,
121,1,4,2,234,1,137.227,347.3276,318.6834,2,3,1,3,0,1,0,318.6834,NaN,100000,999,0,
121,1,4,2,235,1,109.2114,78.9399,257.6819,1,3,2,1,1,0,0,109.2114,76.3378,1.4791,-32.8736,0,
121,1,4,2,236,1,19.2867,228.0358,255.9856,1,2,3,1,1,0,0,19.2867,59.878,0.72877,40.5913,0,
121,1,4,2,237,1,139.962,18.3997,349.6745,3,1,2,1,0,1,0,139.962,NaN,100000,999,0,
121,1,4,2,238,1,106.4416,225.9318,259.7367,3,2,1,2,0,1,0,225.9318,NaN,100000,999,0,
121,1,4,2,239,1,108.8845,315.6691,48.501,1,2,3,1,1,0,0,108.8845,107.3619,1.0208,-1.5226,40,
121,1,4,2,240,0,76.7845,165.5625,256.2754,0,0,0,3,0,0,0,256.2754,295.2831,1.1804,39.0077,0,
121,1,5,2,241,1,228.2911,16.305,196.4227,1,3,2,2,0,0,1,16.305,181.5628,0.95787,165.2578,0,
121,1,5,2,242,0,227.3688,79.2558,19.6459,0,0,0,3,0,0,0,19.6459,42.1481,0.93009,22.5022,10,
121,1,5,2,243,1,16.426,259.5793,288.3534,2,3,1,1,0,0,1,16.426,349.9922,2.3609,-26.4338,10,
121,1,5,2,244,0,229.6716,108.9759,77.2713,0,0,0,2,0,0,0,108.9759,61.4035,0.66659,-47.5724,0,
121,1,5,2,245,1,259.5596,136.7567,46.8618,3,2,1,3,1,0,0,46.8618,55.1319,0.71524,8.27,30,
121,1,5,2,246,0,228.1282,15.9025,195.1504,0,0,0,1,0,0,0,228.1282,195.4269,0.6666,-32.7014,0,
121,1,5,2,247,1,259.7368,16.5834,137.8908,1,2,3,2,0,1,0,16.5834,NaN,100000,999,0,
121,1,5,2,248,1,199.7466,319.7965,19.9497,3,1,2,2,0,0,1,319.7965,242.11,1.0832,-77.6865,0,
121,1,5,2,249,1,199.978,259.3475,169.7395,3,1,2,3,1,0,0,169.7395,157.7689,1.1249,-11.9706,30,
121,1,5,2,250,1,49.2368,226.2849,286.886,2,1,3,2,1,0,0,226.2849,72.0693,0.89562,-154.2156,0,
121,1,5,2,251,1,78.4787,138.4745,289.2668,3,2,1,3,1,0,0,289.2668,299.1523,1.6594,9.8855,30,
121,1,5,2,252,1,285.1528,317.72,19.1175,1,2,3,1,1,0,0,285.1528,311.4276,1.3749,26.2749,10,
121,1,5,2,253,1,75.3009,349.3086,225.3544,2,1,3,2,1,0,0,349.3086,331.6771,0.73604,-17.6315,20,
121,1,5,2,254,0,135.38,105.1417,197.1675,0,0,0,1,0,0,0,135.38,120.3922,1.0762,-14.9878,20,
121,1,5,2,255,0,79.8943,108.3037,19.2312,0,0,0,1,0,0,0,79.8943,126.7197,1.1114,46.8254,0,
121,1,5,2,256,1,76.2625,197.1947,17.9359,1,3,2,1,1,0,0,76.2625,89.0886,1.0346,12.8261,20,
121,1,5,2,257,1,285.1975,227.1738,165.8719,1,3,2,2,0,0,1,227.1738,253.7503,0.95823,26.5765,10,
121,1,5,2,258,0,139.4511,49.6629,195.6468,0,0,0,2,0,0,0,49.6629,262.4167,0.84716,-147.2462,0,
121,1,5,2,259,1,225.566,315.3581,197.9051,3,2,1,3,1,0,0,197.9051,202.6937,0.85419,4.7886,30,
121,1,5,2,260,1,19.5103,78.3466,135.8569,3,1,2,3,1,0,0,135.8569,138.3729,0.70134,2.516,40,
121,1,5,2,261,1,76.506,47.9148,285.5384,3,2,1,3,1,0,0,285.5384,305.193,0.73604,19.6546,20,
121,1,5,2,262,0,108.7769,168.2008,346.5331,0,0,0,2,0,0,0,168.2008,151.909,1.3055,-16.2917,20,
121,1,5,2,263,0,16.8902,109.4934,138.9438,0,0,0,3,0,0,0,138.9438,118.0018,1.604,-20.942,20,
121,1,5,2,264,1,78.1704,347.7574,258.8614,1,3,2,3,0,1,0,258.8614,NaN,100000,999,0,
121,1,5,2,265,0,258.6754,49.5882,15.153,0,0,0,3,0,0,0,15.153,28.993,1.4582,13.84,20,
121,1,5,2,266,0,139.4723,165.3628,108.1772,0,0,0,1,0,0,0,139.4723,133.5122,1.7845,-5.9601,30,
121,1,5,2,267,0,287.6335,48.4547,345.2733,0,0,0,1,0,0,0,287.6335,290.7628,1.722,3.1293,30,
121,1,5,2,268,1,79.5617,109.5881,228.0927,2,3,1,2,1,0,0,109.5881,66.6956,0.4792,-42.8926,0,
121,1,5,2,269,1,256.2028,226.4117,78.9937,1,2,3,2,0,1,0,226.4117,NaN,100000,999,0,
121,1,5,2,270,1,195.7787,347.0457,228.4683,2,3,1,1,0,0,1,195.7787,227.3514,1.1319,31.5726,0,
121,1,5,2,271,1,196.4051,228.0945,166.1022,2,3,1,1,0,0,1,196.4051,175.8838,1.2499,-20.5213,20,
121,1,5,2,272,0,106.9624,45.3351,198.8926,0,0,0,2,0,0,0,45.3351,131.2491,0.95798,85.914,0,
121,1,5,2,273,1,319.0539,287.8236,165.2784,3,2,1,3,1,0,0,165.2784,189.4131,1.2919,24.1347,10,
121,1,5,2,274,1,347.212,197.3353,135.0519,1,2,3,1,1,0,0,347.212,350.5846,1.7776,3.3726,30,
121,1,5,2,275,1,197.5864,138.251,169.3563,3,1,2,3,1,0,0,169.3563,178.6726,2.0071,9.3163,30,
121,1,5,2,276,1,78.3333,196.916,348.4661,3,2,1,3,1,0,0,348.4661,345.6276,1.5624,-2.8386,40,
121,1,5,2,277,0,345.5161,229.0877,19.9005,0,0,0,1,0,0,0,345.5161,337.5779,1.4512,-7.9382,30,
121,1,5,2,278,1,137.058,255.2561,106.5764,1,3,2,3,0,1,0,106.5764,NaN,100000,999,0,
121,1,5,2,279,1,316.2382,79.9271,105.6379,3,2,1,1,0,0,1,316.2382,41.856,1.5693,85.6177,0,
121,1,5,2,280,0,229.4108,349.2476,197.8437,0,0,0,3,0,0,0,197.8437,202.4819,1.4443,4.6382,30,
121,1,5,2,281,0,229.4693,315.8155,49.9449,0,0,0,1,0,0,0,229.4693,221.5432,1.5343,-7.9261,30,
121,1,5,2,282,1,227.5872,18.508,255.2254,2,3,1,3,0,1,0,255.2254,NaN,100000,999,0,
121,1,5,2,283,0,315.497,78.0433,109.0218,0,0,0,3,0,0,0,109.0218,77.351,1.2221,-31.6708,0,
121,1,5,2,284,1,18.7949,169.6158,289.3606,1,2,3,1,1,0,0,18.7949,10.9687,2.041,-7.8262,30,
121,1,5,2,285,1,199.3241,45.7012,348.2857,1,3,2,1,1,0,0,199.3241,195.8167,1.2221,-3.5074,30,
121,1,5,2,286,0,288.9333,195.5999,77.0599,0,0,0,2,0,0,0,195.5999,94.5867,0.90965,-101.0132,0,
121,1,5,2,287,1,107.9219,47.6928,319.9534,3,2,1,3,1,0,0,319.9534,240.8278,0.62496,-79.1255,0,
121,1,5,2,288,0,138.8452,256.7315,319.8373,0,0,0,1,0,0,0,138.8452,142.0106,0.73608,3.1654,30,
121,1,5,2,289,0,78.9467,46.7546,196.1009,0,0,0,3,0,0,0,196.1009,220.7155,0.84715,24.6146,10,
121,1,5,2,290,1,346.2992,48.4378,77.1625,1,2,3,1,1,0,0,346.2992,353.5036,2.0206,7.2043,30,
121,1,5,2,291,0,47.5361,168.0629,318.4329,0,0,0,2,0,0,0,168.0629,204.8006,0.87498,36.7376,0,
121,1,5,2,292,1,15.2567,229.1158,105.1847,2,1,3,2,1,0,0,229.1158,58.9294,0.64581,-170.1864,0,
121,1,5,2,293,0,285.3355,346.8281,19.945,0,0,0,2,0,0,0,346.8281,55.4836,0.77768,68.6555,0,
121,1,5,2,294,0,257.6577,228.2202,197.0375,0,0,0,2,0,0,0,228.2202,37.1255,0.77066,168.9053,0,
121,1,5,2,295,0,199.4218,139.4775,15.3904,0,0,0,2,0,0,0,139.4775,127.4079,1.0083,-12.0696,20,
121,1,5,2,296,1,45.5671,195.2449,226.3806,1,2,3,2,0,1,0,195.2449,NaN,100000,999,0,
121,1,5,2,297,0,349.7923,108.436,166.3002,0,0,0,2,0,0,0,108.436,147.9186,1.1179,39.4827,0,
121,1,5,2,298,1,316.3041,199.2829,227.7306,1,2,3,1,1,0,0,316.3041,310.0015,0.79822,-6.3025,30,
121,1,5,2,299,0,195.2795,46.0652,78.8827,0,0,0,2,0,0,0,46.0652,65.4354,0.6389,19.3702,20,
121,1,5,2,300,1,315.0698,346.9085,289.5356,2,3,1,2,1,0,0,346.9085,352.2118,0.73606,5.3033,30,
121,1,6,2,301,1,79.7841,319.5073,168.5029,1,2,3,3,0,0,1,168.5029,60.0719,0.82624,-108.431,0,
121,1,6,2,302,1,109.2112,169.8573,285.7143,1,2,3,1,1,0,0,109.2112,112.6187,1.2288,3.4075,30,
121,1,6,2,303,0,168.2753,226.9711,345.9674,0,0,0,1,0,0,0,168.2753,155.1497,0.97212,-13.1256,20,
121,1,6,2,304,0,15.1918,169.2424,75.5724,0,0,0,1,0,0,0,15.1918,16.4631,1.5208,1.2713,40,
121,1,6,2,305,1,18.2956,318.6955,346.8718,2,3,1,1,0,0,1,18.2956,16.5628,1.4305,-1.7328,40,
121,1,6,2,306,1,289.9226,49.8966,138.096,1,2,3,1,1,0,0,289.9226,307.9942,1.5898,18.0716,20,
121,1,6,2,307,1,345.7543,78.3395,316.6828,1,3,2,1,1,0,0,345.7543,331.266,1.3193,-14.4882,20,
121,1,6,2,308,0,287.5451,135.1288,169.8776,0,0,0,2,0,0,0,135.1288,134.8529,0.87491,-0.2759,40,
121,1,6,2,309,0,255.8467,108.1058,137.1231,0,0,0,1,0,0,0,255.8467,240.3154,1.354,-15.5313,20,
121,1,6,2,310,0,288.4203,137.4371,106.7839,0,0,0,3,0,0,0,106.7839,110.3488,1.0485,3.5649,30,
121,1,6,2,311,0,229.9133,197.8603,16.1625,0,0,0,2,0,0,0,197.8603,217.9556,1.2082,20.0953,20,
121,1,6,2,312,0,256.8618,16.533,49.4882,0,0,0,2,0,0,0,16.533,211.3036,1.1666,-165.2294,0,
121,1,6,2,313,1,105.2382,348.4136,317.3775,3,1,2,3,1,0,0,317.3775,322.4118,0.96518,5.0343,30,
121,1,6,2,314,1,46.5277,198.6016,289.2731,1,3,2,1,1,0,0,46.5277,68.3379,1.4443,21.8102,10,
121,1,6,2,315,0,76.2584,47.9057,229.0416,0,0,0,1,0,0,0,76.2584,58.4673,1.5066,-17.7911,20,
121,1,6,2,316,1,15.2076,226.9566,199.3315,1,2,3,3,0,0,1,199.3315,216.3138,1.6943,16.9822,20,
121,1,6,2,317,0,105.538,18.4729,48.7088,0,0,0,1,0,0,0,105.538,65.1784,1.9651,-40.3595,0,
121,1,6,2,318,0,78.8217,168.5945,49.4033,0,0,0,2,0,0,0,168.5945,92.2672,0.61109,-76.3273,0,
121,1,6,2,319,0,17.4996,137.615,255.098,0,0,0,1,0,0,0,17.4996,88.9019,0.89552,71.4022,0,
121,1,6,2,320,1,259.6594,195.4038,225.3495,2,3,1,2,1,0,0,195.4038,240.5013,0.79856,45.0976,0,
121,1,6,2,321,1,138.7434,316.0323,258.3285,3,2,1,3,1,0,0,258.3285,250.3843,0.85408,-7.9442,30,
121,1,6,2,322,1,226.0773,136.1014,199.4504,2,1,3,2,1,0,0,136.1014,57.4687,0.90964,-78.6327,0,
121,1,6,2,323,0,106.6549,46.057,18.1284,0,0,0,3,0,0,0,18.1284,31.7248,1.0558,13.5964,20,
121,1,6,2,324,0,75.7454,17.4716,229.2435,0,0,0,3,0,0,0,229.2435,64.4519,0.8611,-164.7915,0,
121,1,6,2,325,0,227.1365,106.384,169.8902,0,0,0,3,0,0,0,169.8902,44.6401,0.88883,-125.2501,0,
121,1,6,2,326,0,136.7248,289.6397,225.1506,0,0,0,3,0,0,0,225.1506,218.5059,0.95823,-6.6447,30,
121,1,6,2,327,1,226.6167,345.3252,106.8691,1,2,3,2,0,1,0,345.3252,NaN,100000,999,0,
121,1,6,2,328,1,137.1461,196.9953,105.3165,2,1,3,2,1,0,0,196.9953,0.31026,0.85407,163.315,0,
121,1,6,2,329,0,165.379,347.1849,316.3581,0,0,0,1,0,0,0,165.379,341.187,1.3818,175.808,0,
121,1,6,2,330,1,198.6708,47.4609,167.0092,3,1,2,2,0,0,1,47.4609,52.5007,0.93743,5.0399,30,
121,1,6,2,331,0,257.8686,48.9896,348.1638,0,0,0,1,0,0,0,257.8686,245.0547,1.4234,-12.8139,20,
121,1,6,2,332,0,45.5781,76.0204,105.5813,0,0,0,1,0,0,0,45.5781,61.7969,1.1668,16.2188,20,
121,1,6,2,333,1,135.3108,108.4758,285.0103,1,2,3,3,0,0,1,285.0103,86.2495,0.92351,161.2392,0,
121,1,6,2,334,0,227.9536,315.0231,15.1538,0,0,0,3,0,0,0,15.1538,339.9598,0.81946,-35.194,0,
121,1,6,2,335,1,49.2546,107.1262,77.872,1,2,3,1,1,0,0,49.2546,53.6055,0.90963,4.3509,30,
121,1,6,2,336,1,348.9192,315.0932,109.5136,2,3,1,2,1,0,0,315.0932,326.4015,1.3054,11.3083,30,
121,1,6,2,337,1,17.6051,135.8951,258.0446,1,3,2,1,1,0,0,17.6051,359.6172,1.4234,-17.9879,20,
121,1,6,2,338,0,166.9995,199.6776,317.3812,0,0,0,1,0,0,0,166.9995,176.9694,0.8749,9.9699,30,
121,1,6,2,339,0,135.6205,47.0353,285.3385,0,0,0,3,0,0,0,285.3385,5.2948,1.0139,79.9563,0,
121,1,6,2,340,1,109.7587,15.5682,75.5864,3,1,2,2,0,0,1,15.5682,78.307,0.59716,62.7387,0,
121,1,6,2,341,1,15.0025,285.5097,106.8519,3,1,2,3,1,0,0,106.8519,71.5803,1.2988,-35.2716,0,
121,1,6,2,342,0,138.1121,78.2913,105.8854,0,0,0,2,0,0,0,78.2913,113.19,0.7431,34.8987,0,
121,1,6,2,343,1,287.1474,78.8986,166.9833,1,2,3,2,0,1,0,78.8986,NaN,100000,999,0,
121,1,6,2,344,1,138.8128,289.8301,109.6494,3,1,2,3,1,0,0,109.6494,55.0621,0.88186,-54.5873,0,
121,1,6,2,345,0,48.0687,106.7289,228.6132,0,0,0,2,0,0,0,106.7289,74.2932,0.86788,-32.4357,0,
121,1,6,2,346,1,16.059,46.6451,78.8117,2,3,1,3,0,1,0,78.8117,NaN,100000,999,0,
121,1,6,2,347,1,319.6437,347.9149,165.0771,1,2,3,1,1,0,0,319.6437,335.2258,1.1454,15.5821,20,
121,1,6,2,348,1,49.2638,197.4076,16.3615,1,2,3,3,0,0,1,16.3615,38.063,0.79856,21.7015,10,
121,1,6,2,349,1,168.5688,105.5118,137.2364,3,1,2,3,1,0,0,137.2364,173.6974,0.70133,36.4609,0,
121,1,6,2,350,1,256.5323,289.1405,199.0395,3,1,2,3,1,0,0,199.0395,209.785,0.72214,10.7455,30,
121,1,6,2,351,0,289.3933,257.0109,317.8066,0,0,0,1,0,0,0,289.3933,308.789,1.2364,19.3957,20,
121,1,6,2,352,0,45.738,169.6035,199.6473,0,0,0,1,0,0,0,45.738,46.6819,1.4998,0.94395,40,
121,1,6,2,353,1,75.9207,225.0509,15.4296,2,3,1,2,1,0,0,225.0509,230.0142,1.4095,4.9633,30,
121,1,6,2,354,1,166.8589,226.9144,46.2815,3,2,1,3,1,0,0,46.2815,33.5377,1.2637,-12.7438,20,
121,1,6,2,355,0,255.2989,138.0798,107.8197,0,0,0,3,0,0,0,107.8197,106.0621,0.92353,-1.7576,40,
121,1,6,2,356,1,288.9209,349.9041,78.4497,1,3,2,1,1,0,0,288.9209,296.0215,1.111,7.1006,30,
121,1,6,2,357,1,228.5225,288.6814,78.2834,2,1,3,3,0,0,1,78.2834,87.1037,1.3749,8.8202,30,
121,1,6,2,358,0,258.4428,139.2845,199.5032,0,0,0,3,0,0,0,199.5032,237.1866,0.7291,37.6834,0,
121,1,6,2,359,0,75.109,109.102,226.4375,0,0,0,2,0,0,0,109.102,121.2308,0.51382,12.1289,20,
121,1,6,2,360,0,228.5207,257.1121,199.7893,0,0,0,3,0,0,0,199.7893,204.2785,0.78459,4.4892,30,
121,1,7,1,361,1,348.6401,108.1069,135.629,2,1,3,2,1,0,0,108.1069,136.7658,0.66685,28.6589,10,
121,1,7,1,362,1,165.9707,77.9004,136.2374,1,3,2,2,0,0,1,77.9004,122.8892,1.1041,44.9888,0,
121,1,7,1,363,1,229.1241,195.9179,256.9655,1,2,3,2,0,1,0,195.9179,122.245,0.69444,-73.6729,0,
121,1,7,1,364,0,165.5695,109.6809,78.4418,0,0,0,2,0,0,0,109.6809,130.0696,0.74991,20.3887,20,
121,1,7,1,365,0,166.3811,318.0762,16.4743,0,0,0,3,0,0,0,16.4743,348.3492,0.9513,-28.1251,10,
121,1,7,1,366,0,315.405,165.8073,195.459,0,0,0,1,0,0,0,315.405,304.8333,1.5905,-10.5717,30,
121,1,7,1,367,1,109.6495,47.4527,18.9816,1,3,2,1,1,0,0,109.6495,97.7003,1.0277,-11.9491,30,
121,1,7,1,368,1,315.9086,169.1649,17.0315,3,1,2,3,1,0,0,17.0315,15.448,0.97918,-1.5835,40,
121,1,7,1,369,0,107.3031,169.6046,349.4309,0,0,0,2,0,0,0,169.6046,81.9807,0.85422,-87.6239,0,
121,1,7,1,370,1,108.4366,228.0565,165.4117,2,1,3,3,0,0,1,165.4117,163.3769,1.25,-2.0348,40,
121,1,7,1,371,1,316.0868,15.5768,45.4294,3,1,2,1,0,1,0,316.0868,18.2291,1.7149,62.1423,0,
121,1,7,1,372,0,169.7511,317.414,197.1645,0,0,0,3,0,0,0,197.1645,217.7882,1.2082,20.6237,20,
121,1,7,1,373,0,135.5719,46.7905,318.9267,0,0,0,1,0,0,0,135.5719,133.9665,0.74311,-1.6054,40,
121,1,7,1,374,1,346.8346,19.0539,319.4885,2,1,3,1,0,1,0,346.8346,357.9708,1.1943,11.1362,30,
121,1,7,1,375,0,45.1252,77.8716,18.6469,0,0,0,2,0,0,0,77.8716,65.7134,0.64579,-12.1582,20,
121,1,7,1,376,1,317.5322,107.8856,259.3953,1,2,3,2,0,1,0,107.8856,84.1076,0.91658,-23.7779,10,
121,1,7,1,377,1,76.9089,199.9239,16.0256,1,3,2,3,0,1,0,16.0256,63.9543,1.0207,47.9287,0,
121,1,7,1,378,1,345.0754,165.4797,78.9348,3,2,1,3,1,0,0,78.9348,85.2713,0.9861,6.3364,30,
121,1,7,1,379,0,109.1753,197.4117,135.2972,0,0,0,1,0,0,0,109.1753,82.9806,0.97914,-26.1946,10,
121,1,7,1,380,1,196.7345,169.6713,346.8693,3,2,1,3,1,0,0,346.8693,358.9974,0.89578,12.1282,20,
121,1,7,1,381,0,107.2397,46.175,135.3356,0,0,0,2,0,0,0,46.175,98.353,0.70133,52.178,0,
121,1,7,1,382,0,226.7344,348.1009,317.1787,0,0,0,3,0,0,0,317.1787,324.0967,1.0346,6.9181,30,
121,1,7,1,383,1,195.1111,168.29,137.2932,3,2,1,3,1,0,0,137.2932,126.2383,0.52078,-11.0549,30,
121,1,7,1,384,0,347.3584,46.9958,19.5556,0,0,0,2,0,0,0,46.9958,341.8939,0.5625,-65.1018,0,
121,1,7,1,385,1,319.1758,109.2633,258.2195,2,1,3,2,1,0,0,109.2633,103.2297,0.63878,-6.0336,30,
121,1,7,1,386,1,197.0324,288.9135,137.166,3,1,2,2,0,0,1,288.9135,60.1214,1.3467,131.208,0,
121,1,7,1,387,0,348.7326,75.5152,105.2421,0,0,0,2,0,0,0,75.5152,123.8311,0.79164,48.3159,0,
121,1,7,1,388,0,77.205,226.647,167.8605,0,0,0,1,0,0,0,77.205,62.3525,1.0763,-14.8525,20,
121,1,7,1,389,0,345.8717,259.7531,79.8875,0,0,0,2,0,0,0,259.7531,102.5913,0.66006,-157.1618,0,
121,1,7,1,390,1,285.5664,17.3066,228.5932,1,2,3,1,1,0,0,285.5664,286.6167,1.4998,1.0503,40,
121,1,7,1,391,0,196.333,165.6764,255.3885,0,0,0,3,0,0,0,255.3885,48.3486,1.0137,152.9601,0,
121,1,7,1,392,1,106.7317,169.8031,346.5066,3,2,1,3,1,0,0,346.5066,7.6943,0.59015,21.1877,10,
121,1,7,1,393,1,136.2231,17.9134,225.2637,2,3,1,1,0,0,1,136.2231,173.7059,0.88187,37.4828,0,
121,1,7,1,394,0,48.0304,138.6822,108.5663,0,0,0,2,0,0,0,138.6822,87.5061,0.70116,-51.1761,0,
121,1,7,1,395,1,135.9702,318.1324,228.1037,3,2,1,3,1,0,0,228.1037,255.9857,0.65263,27.882,10,
121,1,7,1,396,1,165.2446,15.5411,79.2915,2,3,1,2,1,0,0,15.5411,23.3712,0.91665,7.8301,30,
121,1,7,1,397,1,285.1272,199.8929,135.661,2,3,1,2,1,0,0,199.8929,33.0805,0.88918,-166.8124,0,
121,1,7,1,398,1,108.6478,317.4935,257.7333,1,3,2,1,1,0,0,108.6478,114.127,1.0486,5.4792,30,
121,1,7,1,399,1,47.793,198.7833,229.8796,1,3,2,1,1,0,0,47.793,45.6643,0.63189,-2.1287,40,
121,1,7,1,400,0,16.5286,198.8272,226.2644,0,0,0,3,0,0,0,226.2644,233.568,0.84716,7.3036,30,
121,1,7,1,401,1,257.3597,48.9807,169.3782,2,1,3,3,0,0,1,169.3782,218.0972,0.93739,48.719,0,
121,1,7,1,402,0,226.0922,49.7603,76.8113,0,0,0,1,0,0,0,226.0922,224.6869,0.97213,-1.4053,40,
121,1,7,1,403,0,227.4851,346.4198,105.371,0,0,0,2,0,0,0,346.4198,72.1272,0.7359,85.7074,0,
121,1,7,1,404,1,256.8705,46.0809,17.8801,1,2,3,2,0,1,0,46.0809,226.8446,1.2148,-179.2363,0,
121,1,7,1,405,1,15.124,49.5563,345.74,2,3,1,1,0,0,1,15.124,233.3168,0.86105,-141.8072,0,
121,1,7,1,406,1,259.4542,17.9429,105.8129,1,3,2,1,1,0,0,259.4542,252.0793,1.2986,-7.3749,30,
121,1,7,1,407,1,16.7648,199.979,316.8248,1,2,3,1,1,0,0,16.7648,20.4981,0.93743,3.7333,30,
121,1,7,1,408,0,49.1793,317.9413,226.8173,0,0,0,1,0,0,0,49.1793,50.729,1.0415,1.5497,40,
121,1,7,1,409,1,135.3203,49.2732,19.8723,3,2,1,3,1,0,0,19.8723,29.3669,1.0138,9.4946,30,
121,1,7,1,410,1,348.9881,196.8402,165.0757,2,1,3,2,1,0,0,196.8402,176.6423,1.4929,-20.1979,20,
121,1,7,1,411,0,169.6561,48.0783,106.2914,0,0,0,2,0,0,0,48.0783,63.8713,0.75033,15.793,20,
121,1,7,1,412,1,259.3564,318.0681,106.3572,1,3,2,1,1,0,0,259.3564,255.688,2.3678,-3.6685,30,
121,1,7,1,413,1,48.6716,136.6975,346.5138,2,3,1,2,1,0,0,136.6975,122.3286,1.687,-14.369,20,
121,1,7,1,414,0,46.251,18.0135,228.1273,0,0,0,3,0,0,0,228.1273,227.242,1.0137,-0.88522,40,
121,1,7,1,415,0,18.6461,228.4192,138.2071,0,0,0,3,0,0,0,138.2071,149.3689,1.3054,11.1618,30,
121,1,7,1,416,0,137.01,78.9045,259.1961,0,0,0,3,0,0,0,259.1961,271.384,0.96515,12.1879,20,
121,1,7,1,417,1,228.0223,256.9172,107.7524,2,1,3,2,1,0,0,256.9172,98.9642,1.1665,-157.953,0,
121,1,7,1,418,1,77.5213,136.8426,18.4262,1,2,3,3,0,0,1,18.4262,59.61,1.3606,41.1838,0,
121,1,7,1,419,1,45.0179,257.1253,16.1217,2,3,1,2,1,0,0,257.1253,281.7991,0.93743,24.6738,10,
121,1,7,1,420,1,167.9834,315.0926,139.666,2,3,1,2,1,0,0,315.0926,315.9742,0.95147,0.88154,40,
121,1,8,1,421,0,19.4819,349.1117,259.4139,0,0,0,3,0,0,0,259.4139,54.2704,1.2013,154.8565,0,
121,1,8,1,422,1,226.2781,19.858,77.9056,1,2,3,2,0,1,0,19.858,254.882,1.7845,-124.976,0,
121,1,8,1,423,1,45.6067,75.203,349.4397,2,1,3,2,1,0,0,75.203,65.3803,0.62457,-9.8227,30,
121,1,8,1,424,0,108.7988,198.075,135.7603,0,0,0,1,0,0,0,108.7988,150.047,1.2291,41.2483,0,
121,1,8,1,425,1,347.5489,78.1367,19,2,3,1,2,1,0,0,78.1367,97.9705,0.55554,19.8338,20,
121,1,8,1,426,1,258.037,49.9834,195.2119,1,3,2,2,0,0,1,49.9834,66.596,0.72217,16.6126,20,
121,1,8,1,427,1,229.2602,15.4968,257.9889,3,2,1,3,1,0,0,257.9889,240.1099,1.1595,-17.879,20,
121,1,8,1,428,1,345.1878,285.5768,259.0935,1,2,3,1,1,0,0,345.1878,353.3422,0.89578,8.1544,30,
121,1,8,1,429,1,107.8684,347.4155,47.1081,2,1,3,3,0,0,1,47.1081,51.4665,1.2843,4.3583,30,
121,1,8,1,430,1,196.8805,76.0165,165.8958,3,2,1,3,1,0,0,165.8958,173.3642,0.87491,7.4683,30,
121,1,8,1,431,1,259.979,135.0422,228.6642,3,2,1,1,0,0,1,259.979,319.62,1.1596,59.6409,0,
121,1,8,1,432,1,289.2735,346.0245,19.3018,2,1,3,2,1,0,0,346.0245,354.8304,1.1874,8.8059,30,
121,1,8,1,433,0,348.6641,77.3639,16.9629,0,0,0,2,0,0,0,77.3639,25.189,1.0902,-52.1749,0,
121,1,8,1,434,0,139.7399,49.6835,109.9839,0,0,0,3,0,0,0,109.9839,73.5287,0.81936,-36.4552,0,
121,1,8,1,435,0,258.7759,16.4223,166.0312,0,0,0,2,0,0,0,16.4223,72.4765,0.51383,56.0541,0,
121,1,8,1,436,1,285.3578,135.942,106.6778,2,3,1,3,0,1,0,106.6778,217.0384,0.72215,110.3605,0,
121,1,8,1,437,1,287.168,75.6769,166.078,2,3,1,2,1,0,0,75.6769,69.6988,0.53452,-5.9781,30,
121,1,8,1,438,1,348.0378,45.3974,137.0769,3,2,1,1,0,0,1,348.0378,28.0441,1.1732,40.0063,0,
121,1,8,1,439,1,228.4184,79.442,138.5643,3,1,2,3,1,0,0,138.5643,144.8947,0.99311,6.3303,30,
121,1,8,1,440,1,106.9983,77.2006,196.5481,3,1,2,3,1,0,0,196.5481,200.4122,0.98603,3.864,30,
121,1,8,1,441,1,138.2049,259.8788,319.6033,3,2,1,3,1,0,0,319.6033,309.4602,0.74994,-10.1431,30,
121,1,8,1,442,0,16.7871,75.6814,169.0289,0,0,0,3,0,0,0,169.0289,157.408,0.90949,-11.6209,30,
121,1,8,1,443,1,138.017,198.3382,169.3166,1,3,2,1,1,0,0,138.017,149.5672,0.68727,11.5502,30,
121,1,8,1,444,1,46.4313,349.1655,288.8512,1,2,3,1,1,0,0,46.4313,237.9842,0.090255,-168.4471,0,
121,1,8,1,445,1,15.4099,286.8748,255.435,3,2,1,2,0,1,0,286.8748,89.2678,0.77755,162.393,0,
121,1,8,1,446,0,258.6654,107.634,76.3465,0,0,0,1,0,0,0,258.6654,177.7295,0.6111,-80.9359,0,
121,1,8,1,447,1,108.6335,169.8065,228.7511,1,3,2,1,1,0,0,108.6335,101.4612,1.1388,-7.1723,30,
121,1,8,1,448,1,16.72,286.1982,165.002,1,2,3,2,0,1,0,286.1982,263.5921,1.4234,-22.6061,10,
121,1,8,1,449,0,168.6221,287.0458,139.9883,0,0,0,1,0,0,0,168.6221,27.5851,1.2225,-141.0371,0,
121,1,8,1,450,1,348.249,318.9504,75.3615,3,2,1,3,1,0,0,75.3615,55.9445,1.0138,-19.417,20,
121,1,8,1,451,1,47.0638,317.0801,197.3169,3,1,2,3,1,0,0,197.3169,67.4537,2.965,-129.8632,0,
121,1,8,1,452,0,255.3488,319.3022,166.0419,0,0,0,3,0,0,0,166.0419,176.0271,0.77767,9.9852,30,
121,1,8,1,453,1,286.5414,166.6602,19.658,2,1,3,2,1,0,0,166.6602,159.4951,0.94422,-7.1652,30,
121,1,8,1,454,0,48.7005,137.024,315.2571,0,0,0,2,0,0,0,137.024,304.7419,1.3749,167.7179,0,
121,1,8,1,455,0,258.172,318.6573,285.7818,0,0,0,1,0,0,0,258.172,312.4274,1.5484,54.2555,0,
121,1,8,1,456,0,165.231,257.1094,286.7793,0,0,0,2,0,0,0,257.1094,287.8358,1.111,30.7264,0,
121,1,8,1,457,0,227.6564,169.6851,256.6671,0,0,0,1,0,0,0,227.6564,299.5601,1.1939,71.9038,0,
121,1,8,1,458,1,107.2598,348.8097,288.1292,1,3,2,1,1,0,0,107.2598,128.5623,0.73595,21.3025,10,
121,1,8,1,459,1,15.902,46.4852,199.1465,1,2,3,1,1,0,0,15.902,16.005,0.60414,0.10303,40,
121,1,8,1,460,0,168.8212,106.8982,197.2703,0,0,0,1,0,0,0,168.8212,148.0282,0.80548,-20.793,20,
121,1,8,1,461,0,137.7108,199.1513,166.5872,0,0,0,3,0,0,0,166.5872,148.329,0.86816,-18.2582,20,
121,1,8,1,462,1,137.9032,285.9225,347.4746,2,3,1,2,1,0,0,285.9225,315.1973,1.0624,29.2748,10,
121,1,8,1,463,1,196.5762,75.7709,106.9421,3,2,1,2,0,1,0,75.7709,304.0441,1.118,-131.7268,0,
121,1,8,1,464,1,285.3413,136.0661,78.8595,1,3,2,1,1,0,0,285.3413,147.7234,0.68751,-137.6179,0,
121,1,8,1,465,1,108.3365,79.3563,165.9066,2,1,3,1,0,1,0,108.3365,314.4806,1.2012,-153.8558,0,
121,1,8,1,466,1,168.7508,348.7918,47.9178,1,3,2,2,0,0,1,348.7918,59.9328,0.68726,71.141,0,
121,1,8,1,467,1,136.3524,348.8175,316.5929,3,1,2,3,1,0,0,316.5929,209.7768,0.65268,-106.816,0,
121,1,8,1,468,1,75.5238,107.2228,287.4528,3,1,2,1,0,1,0,75.5238,169.3802,0.72218,93.8564,0,
121,1,8,1,469,1,108.5544,76.3167,166.4805,3,1,2,3,1,0,0,166.4805,168.0167,0.99994,1.5362,40,
121,1,8,1,470,0,259.2464,105.2999,18.8336,0,0,0,3,0,0,0,18.8336,27.6742,1.1114,8.8405,30,
121,1,8,1,471,1,75.1583,345.7907,108.5985,3,1,2,3,1,0,0,108.5985,98.8756,0.9374,-9.7229,30,
121,1,8,1,472,0,138.904,195.9652,285.8697,0,0,0,1,0,0,0,138.904,138.0539,1.1735,-0.85001,40,
121,1,8,1,473,0,199.5466,285.8034,138.6897,0,0,0,1,0,0,0,199.5466,156.1874,1.2291,-43.3592,0,
121,1,8,1,474,0,45.596,168.2843,289.7366,0,0,0,2,0,0,0,168.2843,101.553,0.72222,-66.7313,0,
121,1,8,1,475,0,47.2486,259.3221,289.7698,0,0,0,1,0,0,0,47.2486,52.6762,1.0486,5.4276,30,
121,1,8,1,476,1,259.3878,105.4648,79.6492,3,2,1,3,1,0,0,79.6492,79.8008,1.8197,0.15161,40,
121,1,8,1,477,0,77.187,227.5914,47.8009,0,0,0,1,0,0,0,77.187,66.4888,1.729,-10.6982,30,
121,1,8,1,478,0,197.6277,46.1462,135.2819,0,0,0,3,0,0,0,135.2819,123.3992,1.5,-11.8827,30,
121,1,8,1,479,1,139.1133,197.1161,345.5079,1,3,2,1,1,0,0,139.1133,181.8448,1.465,42.7315,0,
121,1,8,1,480,1,17.8186,46.5734,105.7283,1,2,3,3,0,0,1,105.7283,72.9112,1.6457,-32.8171,0,
