Subject,Session,Block,Condition,Trial,whetherCued,leftStim,rightStim,midStim,remCueLoc,fogCueLoc,neutralCueLoc,probeCueLoc,probeRem,probeForget,probeNeutral,Target,Estimate,RT,Error,Points
125,1,1,1,1,0,136.1214,256.3453,18.3652,0,0,0,2,0,0,0,256.3453,117.0793,1.9168,-139.266,0,
125,1,1,1,2,0,289.4795,225.4954,105.2208,0,0,0,1,0,0,0,289.4795,238.6531,1.7084,-50.8263,0,
125,1,1,1,3,1,347.5064,287.1586,109.9878,2,1,3,2,1,0,0,287.1586,136.6862,1.5418,-150.4724,0,
125,1,1,1,4,0,348.6529,108.2324,289.1658,0,0,0,1,0,0,0,348.6529,319.7764,2.1167,-28.8766,10,
125,1,1,1,5,1,107.4617,228.4737,289.8637,3,2,1,3,1,0,0,289.8637,118.2817,1.5663,-171.582,0,
125,1,1,1,6,1,138.3022,255.2378,226.7439,2,3,1,1,0,0,1,138.3022,117.3121,2.0422,-20.9901,20,
125,1,1,1,7,1,197.5189,257.448,49.3852,3,1,2,3,1,0,0,49.3852,36.5362,1.2751,-12.8491,20,
125,1,1,1,8,1,105.0963,165.4194,19.874,1,2,3,1,1,0,0,105.0963,107.2803,1.4751,2.184,40,
125,1,1,1,9,0,349.6502,286.9951,105.237,0,0,0,1,0,0,0,349.6502,107.0329,1.4001,117.3827,0,
125,1,1,1,10,0,259.389,197.9122,285.3534,0,0,0,1,0,0,0,259.389,231.9585,1.7836,-27.4305,10,
125,1,1,1,11,1,317.5194,78.234,226.5387,2,1,3,2,1,0,0,78.234,107.6755,1.3169,29.4414,10,
125,1,1,1,12,1,226.4331,199.0041,19.4806,2,1,3,2,1,0,0,199.0041,188.9218,4.2086,-10.0823,30,
125,1,1,1,13,1,199.1477,319.2454,226.8627,1,2,3,1,1,0,0,199.1477,213.1004,1.5918,13.9527,20,
125,1,1,1,14,1,198.7837,137.0852,229.8589,1,2,3,2,0,1,0,137.0852,17.2644,2.0169,-119.8209,0,
125,1,1,1,15,1,317.252,136.0284,79.4983,1,2,3,3,0,0,1,79.4983,60.2947,1.6918,-19.2036,20,
125,1,1,1,16,0,166.9501,227.4895,288.474,0,0,0,1,0,0,0,166.9501,143.7152,1.5084,-23.2349,10,
125,1,1,1,17,0,255.5852,109.0734,346.6243,0,0,0,3,0,0,0,346.6243,349.1994,2.4085,2.5752,40,
125,1,1,1,18,1,19.1594,45.6717,75.3023,2,3,1,2,1,0,0,45.6717,38.7253,1.9502,-6.9464,30,
125,1,1,1,19,1,139.9843,17.7677,197.5773,1,2,3,1,1,0,0,139.9843,146.941,1.4084,6.9568,30,
125,1,1,1,20,1,169.6556,105.9539,16.2929,1,2,3,2,0,1,0,105.9539,44.1288,1.4084,-61.8251,0,
125,1,1,1,21,0,198.6008,256.7345,227.585,0,0,0,1,0,0,0,198.6008,211.7815,2.1751,13.1807,20,
125,1,1,1,22,0,47.1514,228.4688,289.7261,0,0,0,2,0,0,0,228.4688,239.6046,2.4335,11.1358,30,
125,1,1,1,23,0,288.3452,197.5011,346.09,0,0,0,1,0,0,0,288.3452,250.7157,2.9085,-37.6295,0,
125,1,1,1,24,1,229.3193,135.4885,169.5403,3,2,1,1,0,0,1,229.3193,228.8354,2.0918,-0.48399,40,
125,1,1,1,25,1,137.5392,347.928,18.8144,1,2,3,1,1,0,0,137.5392,133.4035,1.5001,-4.1357,30,
125,1,1,1,26,0,17.7694,108.4003,196.8359,0,0,0,2,0,0,0,108.4003,48.0077,1.3085,-60.3926,0,
125,1,1,1,27,1,135.7013,16.3007,195.4341,3,2,1,3,1,0,0,195.4341,215.5641,2.4418,20.13,20,
125,1,1,1,28,1,346.1034,285.0065,135.9459,1,2,3,2,0,1,0,285.0065,25.5362,1.7586,100.5297,0,
125,1,1,1,29,0,105.3418,17.1816,75.8693,0,0,0,1,0,0,0,105.3418,75.8325,1.4918,-29.5093,10,
125,1,1,1,30,1,166.1401,16.8543,319.4546,2,3,1,2,1,0,0,16.8543,22.3872,1.5501,5.5329,30,
125,1,1,1,31,1,347.6621,78.5825,225.8965,2,3,1,1,0,0,1,347.6621,329.262,2.7001,-18.4002,20,
125,1,1,1,32,1,169.6783,319.0936,48.6413,1,3,2,1,1,0,0,169.6783,169.4934,1.6251,-0.18492,40,
125,1,1,1,33,1,108.812,17.8803,78.7383,3,1,2,3,1,0,0,78.7383,63.5026,1.5253,-15.2357,20,
125,1,1,1,34,1,347.6614,136.397,49.7312,2,3,1,2,1,0,0,136.397,134.4127,2.1585,-1.9843,40,
125,1,1,1,35,0,78.6346,196.8692,47.9079,0,0,0,2,0,0,0,196.8692,179.0644,2.3919,-17.8048,20,
125,1,1,1,36,0,45.7597,16.9855,196.8736,0,0,0,3,0,0,0,196.8736,201.2187,2.8503,4.345,30,
125,1,1,1,37,1,138.2116,316.1063,79.1853,2,1,3,2,1,0,0,316.1063,327.8374,1.7917,11.7311,30,
125,1,1,1,38,0,319.2929,289.5553,168.4982,0,0,0,3,0,0,0,168.4982,172.5301,2.1168,4.032,30,
125,1,1,1,39,1,287.6468,199.1499,49.2938,3,1,2,2,0,0,1,199.1499,194.6985,1.8833,-4.4514,30,
125,1,1,1,40,1,169.2518,139.5582,198.1964,1,3,2,1,1,0,0,169.2518,158.1749,2.2752,-11.0769,30,
125,1,1,1,41,1,169.1329,48.3844,286.038,3,2,1,3,1,0,0,286.038,291.8982,1.6417,5.8602,30,
125,1,1,1,42,1,287.2569,316.9132,48.9482,2,1,3,2,1,0,0,316.9132,312.9244,1.8,-3.9889,30,
125,1,1,1,43,0,228.7938,349.9761,315.9329,0,0,0,3,0,0,0,315.9329,307.2085,0.97501,-8.7244,30,
125,1,1,1,44,1,285.9688,47.1618,258.7458,2,1,3,2,1,0,0,47.1618,45.8109,1.9752,-1.351,40,
125,1,1,1,45,0,19.6749,137.3974,346.159,0,0,0,2,0,0,0,137.3974,152.2427,1.8835,14.8453,20,
125,1,1,1,46,1,287.6548,259.506,317.7028,2,1,3,2,1,0,0,259.506,263.0376,2.1002,3.5316,30,
125,1,1,1,47,0,105.9911,165.9754,316.6342,0,0,0,3,0,0,0,316.6342,313.4677,1.6084,-3.1665,30,
125,1,1,1,48,1,109.0699,259.4922,77.1462,3,1,2,1,0,1,0,109.0699,80.536,1.8835,-28.5339,10,
125,1,1,1,49,1,315.4649,347.3174,285.0467,1,2,3,1,1,0,0,315.4649,134.527,1.1168,179.062,0,
125,1,1,1,50,0,77.1828,225.2461,105.2482,0,0,0,1,0,0,0,77.1828,88.4854,1.5751,11.3027,30,
125,1,1,1,51,1,17.3062,228.1966,259.5867,2,3,1,2,1,0,0,228.1966,223.8982,1.3084,-4.2984,30,
125,1,1,1,52,1,19.9049,195.6352,286.1612,1,3,2,1,1,0,0,19.9049,40.8902,1.7751,20.9853,20,
125,1,1,1,53,0,19.2845,75.217,318.4581,0,0,0,2,0,0,0,75.217,46.127,1.1585,-29.09,10,
125,1,1,1,54,1,79.095,348.1246,228.6928,3,2,1,3,1,0,0,228.6928,223.9387,2.15,-4.7541,30,
125,1,1,1,55,1,49.4771,227.9126,257.9137,1,3,2,1,1,0,0,49.4771,46.9732,2.0085,-2.504,40,
125,1,1,1,56,1,47.0319,136.931,228.049,2,1,3,3,0,0,1,228.049,226.7349,3.1002,-1.3141,40,
125,1,1,1,57,1,77.6151,16.6265,49.1592,2,3,1,2,1,0,0,16.6265,37.0979,1.1751,20.4714,20,
125,1,1,1,58,0,137.6428,345.2572,78.7844,0,0,0,2,0,0,0,345.2572,326.8741,1.6751,-18.3831,20,
125,1,1,1,59,0,168.7425,317.7165,226.6907,0,0,0,2,0,0,0,317.7165,332.855,2.8252,15.1385,20,
125,1,1,1,60,1,315.1258,197.0721,138.657,2,1,3,3,0,0,1,138.657,154.8135,2.6001,16.1565,20,
125,1,2,1,61,0,315.8145,169.192,195.8378,0,0,0,3,0,0,0,195.8378,299.9627,0.00016465,104.1249,0,
125,1,2,1,62,0,109.7017,135.0292,228.0515,0,0,0,2,0,0,0,135.0292,147.437,1.4917,12.4078,20,
125,1,2,1,63,1,256.4523,47.0128,289.3103,1,3,2,3,0,1,0,289.3103,222.3124,2.1918,-66.9979,0,
125,1,2,1,64,1,319.2054,76.7725,167.1503,1,3,2,2,0,0,1,76.7725,68.5745,1.6834,-8.198,30,
125,1,2,1,65,1,289.8173,135.4295,167.5025,3,2,1,3,1,0,0,167.5025,187.7127,2.0751,20.2102,20,
125,1,2,1,66,0,46.5193,197.4165,346.6891,0,0,0,1,0,0,0,46.5193,44.3148,2.0501,-2.2045,40,
125,1,2,1,67,0,79.9262,107.7974,169.668,0,0,0,2,0,0,0,107.7974,87.7133,1.4002,-20.0841,20,
125,1,2,1,68,1,135.5422,165.1806,228.0905,2,1,3,2,1,0,0,165.1806,173.5766,1.2667,8.396,30,
125,1,2,1,69,0,259.4502,346.651,166.1485,0,0,0,1,0,0,0,259.4502,237.6671,2.3668,-21.7831,10,
125,1,2,1,70,0,135.5697,19.8928,79.243,0,0,0,3,0,0,0,79.243,67.8852,1.4501,-11.3578,30,
125,1,2,1,71,0,285.5402,17.2994,137.2544,0,0,0,3,0,0,0,137.2544,275.3881,1.9335,138.1337,0,
125,1,2,1,72,1,138.7045,347.534,165.9996,2,3,1,2,1,0,0,347.534,354.6051,1.2667,7.0711,30,
125,1,2,1,73,1,169.3879,345.0718,46.4715,1,2,3,1,1,0,0,169.3879,165.185,1.2751,-4.2029,30,
125,1,2,1,74,1,227.7164,78.5126,19.7822,2,1,3,2,1,0,0,78.5126,54.4518,1.2751,-24.0608,10,
125,1,2,1,75,0,78.8751,319.5709,48.9128,0,0,0,2,0,0,0,319.5709,316.936,2.0668,-2.635,40,
125,1,2,1,76,0,48.4957,168.9813,137.2079,0,0,0,3,0,0,0,137.2079,134.7772,1.7668,-2.4307,40,
125,1,2,1,77,0,315.7287,287.9252,345.3668,0,0,0,3,0,0,0,345.3668,335.4985,1.1752,-9.8683,30,
125,1,2,1,78,0,286.8252,226.5457,315.6046,0,0,0,1,0,0,0,286.8252,261.9691,1.5,-24.8561,10,
125,1,2,1,79,1,256.6999,319.2336,46.2303,1,3,2,1,1,0,0,256.6999,231.3037,1.2917,-25.3962,10,
125,1,2,1,80,1,135.68,78.9445,105.462,2,1,3,1,0,1,0,135.68,149.0355,1.6502,13.3555,20,
125,1,2,1,81,1,75.0988,319.8215,349.8519,2,3,1,2,1,0,0,319.8215,348.9233,1.6751,29.1019,10,
125,1,2,1,82,0,19.6916,226.2771,107.6658,0,0,0,2,0,0,0,226.2771,218.623,2.4001,-7.6541,30,
125,1,2,1,83,0,138.9798,226.1669,78.0042,0,0,0,2,0,0,0,226.1669,203.1751,1.8169,-22.9918,10,
125,1,2,1,84,0,346.4868,16.9821,317.1038,0,0,0,3,0,0,0,317.1038,312.2151,1.3084,-4.8887,30,
125,1,2,1,85,1,317.7541,79.3545,195.2113,1,2,3,2,0,1,0,79.3545,89.9303,1.2251,10.5758,30,
125,1,2,1,86,1,47.5997,169.9459,257.4496,3,2,1,1,0,0,1,47.5997,49.7814,2.6418,2.1818,40,
125,1,2,1,87,1,79.0846,195.9474,105.6185,1,2,3,1,1,0,0,79.0846,72.8543,1.625,-6.2303,30,
125,1,2,1,88,1,76.6599,319.1987,286.8586,3,2,1,1,0,0,1,76.6599,60.8669,1.3918,-15.7931,20,
125,1,2,1,89,1,135.784,76.6302,46.5703,1,2,3,1,1,0,0,135.784,116.0975,1.5334,-19.6865,20,
125,1,2,1,90,0,286.0726,228.3995,167.7865,0,0,0,3,0,0,0,167.7865,157.5017,3.1668,-10.2848,30,
125,1,2,1,91,1,287.0116,195.9092,139.2813,2,3,1,3,0,1,0,139.2813,136.9651,1.4418,-2.3162,40,
125,1,2,1,92,1,225.9992,318.0367,107.7152,3,2,1,1,0,0,1,225.9992,235.9598,1.8335,9.9606,30,
125,1,2,1,93,1,48.791,169.4352,15.344,1,3,2,1,1,0,0,48.791,45.4516,3.0668,-3.3393,30,
125,1,2,1,94,0,16.9081,317.8384,169.4393,0,0,0,1,0,0,0,16.9081,48.0464,1.8751,31.1384,0,
125,1,2,1,95,1,139.6308,166.4925,256.6904,2,3,1,3,0,1,0,256.6904,86.3596,2.8085,-170.3308,0,
125,1,2,1,96,1,346.3991,77.235,47.9379,1,2,3,1,1,0,0,346.3991,319.0304,1.5751,-27.3688,10,
125,1,2,1,97,1,349.442,316.1658,289.308,2,3,1,2,1,0,0,316.1658,340.6777,1.6501,24.5119,10,
125,1,2,1,98,0,287.6372,108.625,348.0371,0,0,0,2,0,0,0,108.625,128.2019,2.3501,19.5769,20,
125,1,2,1,99,0,349.0746,135.7025,259.3993,0,0,0,1,0,0,0,349.0746,342.3134,2.9502,-6.7612,30,
125,1,2,1,100,0,15.4219,229.8604,285.1573,0,0,0,2,0,0,0,229.8604,48.065,3.4419,178.2046,0,
125,1,2,1,101,0,318.2673,77.4483,349.8643,0,0,0,2,0,0,0,77.4483,62.5091,1.2584,-14.9392,20,
125,1,2,1,102,0,287.6205,225.601,105.889,0,0,0,3,0,0,0,105.889,109.8714,1.8501,3.9825,30,
125,1,2,1,103,1,77.9122,257.105,345.4603,1,3,2,1,1,0,0,77.9122,76.1284,1.4084,-1.7837,40,
125,1,2,1,104,1,15.8762,165.966,258.0821,1,3,2,1,1,0,0,15.8762,31.6997,2.0584,15.8235,20,
125,1,2,1,105,1,288.861,317.3768,18.4045,3,1,2,3,1,0,0,18.4045,5.9647,1.3584,-12.4398,20,
125,1,2,1,106,0,139.1315,79.956,197.6197,0,0,0,3,0,0,0,197.6197,23.732,2.1836,-173.8877,0,
125,1,2,1,107,1,317.3578,347.715,225.2985,2,3,1,2,1,0,0,347.715,348.3857,2.0334,0.67071,40,
125,1,2,1,108,0,79.1667,256.0186,227.7221,0,0,0,2,0,0,0,256.0186,256.5568,1.8668,0.53819,40,
125,1,2,1,109,1,165.6614,49.3524,348.0148,2,3,1,1,0,0,1,165.6614,175.4086,1.4585,9.7471,30,
125,1,2,1,110,1,76.8968,319.3234,17.0998,1,2,3,1,1,0,0,76.8968,52.6689,3.2003,-24.228,10,
125,1,2,1,111,0,349.1405,287.5372,16.8308,0,0,0,3,0,0,0,16.8308,355.851,1.3834,-20.9799,20,
125,1,2,1,112,0,167.8456,109.3752,136.7429,0,0,0,2,0,0,0,109.3752,125.0946,1.3668,15.7194,20,
125,1,2,1,113,0,17.3376,75.7067,45.3407,0,0,0,1,0,0,0,17.3376,18.5108,2.0918,1.1732,40,
125,1,2,1,114,1,346.2021,48.4245,319.1963,3,2,1,3,1,0,0,319.1963,311.9934,1.1251,-7.2029,30,
125,1,2,1,115,0,316.9479,48.8765,285.8968,0,0,0,3,0,0,0,285.8968,306.1345,1.0001,20.2377,20,
125,1,2,1,116,0,169.6136,317.8213,17.1573,0,0,0,3,0,0,0,17.1573,334.8339,1.6084,-42.3234,0,
125,1,2,1,117,1,79.9629,257.2792,17.1302,1,3,2,3,0,1,0,17.1302,357.1231,1.3667,-20.0071,20,
125,1,2,1,118,1,348.4165,318.0428,46.0983,2,1,3,2,1,0,0,318.0428,328.7818,1.7085,10.739,30,
125,1,2,1,119,1,169.7606,319.8793,345.1546,1,2,3,1,1,0,0,169.7606,164.2804,1.6001,-5.4802,30,
125,1,2,1,120,1,196.2163,77.8571,319.9086,2,1,3,1,0,1,0,196.2163,199.012,1.0833,2.7957,40,
125,1,3,2,121,0,315.19,49.7712,258.7119,0,0,0,3,0,0,0,258.7119,257.1235,1.6749,-1.5884,40,
125,1,3,2,122,1,256.3059,75.474,107.2548,2,3,1,2,1,0,0,75.474,91.5186,0.99999,16.0446,20,
125,1,3,2,123,1,46.3872,285.0305,346.8736,1,3,2,1,1,0,0,46.3872,41.8427,1.7918,-4.5444,30,
125,1,3,2,124,0,105.9184,319.3083,75.1632,0,0,0,2,0,0,0,319.3083,302.4253,2.3501,-16.883,20,
125,1,3,2,125,0,106.5588,195.2766,18.769,0,0,0,3,0,0,0,18.769,5.709,1.6749,-13.0599,20,
125,1,3,2,126,1,139.8817,17.9662,316.522,1,3,2,2,0,0,1,17.9662,23.0934,1.2667,5.1272,30,
125,1,3,2,127,1,108.4447,349.7301,229.3677,1,3,2,1,1,0,0,108.4447,116.8548,1.4168,8.4101,30,
125,1,3,2,128,1,319.9646,15.8124,75.5678,3,1,2,3,1,0,0,75.5678,85.5444,2.3918,9.9766,30,
125,1,3,2,129,1,317.5047,196.66,135.8694,2,3,1,2,1,0,0,196.66,191.1884,1.6583,-5.4716,30,
125,1,3,2,130,1,287.6892,169.3546,108.6142,3,2,1,3,1,0,0,108.6142,138.853,1.8835,30.2388,0,
125,1,3,2,131,1,347.3686,289.756,46.2448,2,1,3,2,1,0,0,289.756,331.5669,1.6335,41.8109,0,
125,1,3,2,132,0,167.2609,19.246,46.9522,0,0,0,2,0,0,0,19.246,23.0041,1.4918,3.7581,30,
125,1,3,2,133,1,197.6056,138.8715,165.6013,2,3,1,2,1,0,0,138.8715,144.8584,1.1834,5.9869,30,
125,1,3,2,134,1,167.5071,256.385,287.6698,3,2,1,1,0,0,1,167.5071,148.3154,1.3335,-19.1917,20,
125,1,3,2,135,1,75.2679,196.8753,288.875,2,3,1,2,1,0,0,196.8753,221.3324,1.4668,24.4572,10,
125,1,3,2,136,1,197.5604,348.6066,259.6442,3,1,2,3,1,0,0,259.6442,247.5915,1.6002,-12.0527,20,
125,1,3,2,137,0,168.4379,109.9343,348.8497,0,0,0,3,0,0,0,348.8497,341.2371,1.2585,-7.6126,30,
125,1,3,2,138,0,198.6208,258.0684,348.9148,0,0,0,2,0,0,0,258.0684,245.6288,1.4584,-12.4397,20,
125,1,3,2,139,1,345.3642,288.7561,229.1559,1,2,3,1,1,0,0,345.3642,339.6583,1.6084,-5.7059,30,
125,1,3,2,140,1,229.1626,289.9769,348.2488,3,2,1,1,0,0,1,229.1626,233.0141,1.0251,3.8515,30,
125,1,3,2,141,1,196.0322,256.693,137.8706,1,3,2,1,1,0,0,196.0322,209.8116,1.0083,13.7795,20,
125,1,3,2,142,1,137.2949,199.3049,318.3042,3,2,1,3,1,0,0,318.3042,313.3696,1.0084,-4.9345,30,
125,1,3,2,143,1,319.5075,166.5917,77.9854,3,2,1,3,1,0,0,77.9854,53.5458,1.3084,-24.4396,10,
125,1,3,2,144,1,198.7463,49.2093,255.8344,2,3,1,2,1,0,0,49.2093,42.2628,1.4751,-6.9464,30,
125,1,3,2,145,0,47.6562,169.7795,195.3334,0,0,0,3,0,0,0,195.3334,316.7745,2.2835,121.4411,0,
125,1,3,2,146,1,285.7627,255.7778,345.4478,3,1,2,3,1,0,0,345.4478,332.3302,1.8502,-13.1176,20,
125,1,3,2,147,0,346.1715,287.3235,18.0969,0,0,0,1,0,0,0,346.1715,324.9822,1.7418,-21.1894,10,
125,1,3,2,148,0,286.6012,47.4647,76.1083,0,0,0,1,0,0,0,286.6012,283.2574,1.3918,-3.3438,30,
125,1,3,2,149,1,169.9519,135.1685,257.1213,3,2,1,3,1,0,0,257.1213,263.6546,1.8251,6.5334,30,
125,1,3,2,150,1,135.5186,76.8876,286.3143,1,3,2,1,1,0,0,135.5186,132.1891,1.3583,-3.3294,30,
125,1,3,2,151,1,136.9241,15.8132,228.9838,3,2,1,3,1,0,0,228.9838,248.4502,1.4585,19.4664,20,
125,1,3,2,152,1,256.3422,16.2905,47.405,2,1,3,1,0,1,0,256.3422,NaN,100000,999,0,
125,1,3,2,153,1,46.019,79.9667,135.4681,3,2,1,3,1,0,0,135.4681,349.5991,0.60838,-145.8691,0,
125,1,3,2,154,0,139.2935,49.6024,78.7542,0,0,0,3,0,0,0,78.7542,92.0655,1.7084,13.3113,20,
125,1,3,2,155,0,287.1087,317.0566,79.7957,0,0,0,1,0,0,0,287.1087,301.0028,1.6833,13.8941,20,
125,1,3,2,156,1,108.3266,79.8213,348.3558,3,1,2,2,0,0,1,79.8213,49.7047,1.1501,-30.1166,0,
125,1,3,2,157,1,75.3655,287.9028,346.4351,3,1,2,3,1,0,0,346.4351,345.5358,2.2251,-0.8993,40,
125,1,3,2,158,1,198.7184,106.9255,16.2575,3,2,1,3,1,0,0,16.2575,4.9907,1.4334,-11.2668,30,
125,1,3,2,159,1,19.4394,316.2826,169.834,1,2,3,3,0,0,1,169.834,184.8011,2.0252,14.9671,20,
125,1,3,2,160,1,198.7854,49.4316,347.3611,1,2,3,2,0,1,0,49.4316,NaN,100000,999,0,
125,1,3,2,161,0,256.8834,287.5216,198.8175,0,0,0,3,0,0,0,198.8175,214.7777,1.4918,15.9603,20,
125,1,3,2,162,0,15.4179,197.5633,289.1643,0,0,0,2,0,0,0,197.5633,207.2893,2.4168,9.7259,30,
125,1,3,2,163,0,225.9814,285.6068,317.7185,0,0,0,3,0,0,0,317.7185,317.4948,1.3251,-0.22368,40,
125,1,3,2,164,1,226.822,15.8574,348.9768,2,3,1,2,1,0,0,15.8574,20.0603,1.2002,4.2028,30,
125,1,3,2,165,0,108.4765,49.8046,227.7316,0,0,0,1,0,0,0,108.4765,52.3874,1.6001,-56.0891,0,
125,1,3,2,166,1,139.2915,349.5471,169.8083,2,3,1,2,1,0,0,349.5471,351.4235,2.3251,1.8764,40,
125,1,3,2,167,1,317.665,166.6339,78.011,1,2,3,1,1,0,0,317.665,322.4186,2.8667,4.7536,30,
125,1,3,2,168,0,45.8568,286.6499,19.8324,0,0,0,1,0,0,0,45.8568,61.1501,2.2668,15.2933,20,
125,1,3,2,169,0,106.7704,226.3312,346.4575,0,0,0,1,0,0,0,106.7704,91.5497,2.7002,-15.2207,20,
125,1,3,2,170,1,49.4181,287.1224,18.0363,2,3,1,2,1,0,0,287.1224,248.8641,2.6251,-38.2582,0,
125,1,3,2,171,0,17.7364,197.7674,108.1529,0,0,0,2,0,0,0,197.7674,211.5734,2.3586,13.806,20,
125,1,3,2,172,0,345.4081,166.3724,229.3376,0,0,0,2,0,0,0,166.3724,147.3373,2.0668,-19.0351,20,
125,1,3,2,173,0,198.8857,346.9197,288.5578,0,0,0,1,0,0,0,198.8857,26.186,3.3086,-172.6997,0,
125,1,3,2,174,0,285.827,225.908,348.4572,0,0,0,1,0,0,0,285.827,278.0555,2.0918,-7.7715,30,
125,1,3,2,175,0,165.0106,319.7555,18.8315,0,0,0,3,0,0,0,18.8315,5.1805,2.2668,-13.651,20,
125,1,3,2,176,0,45.903,107.8665,75.8178,0,0,0,2,0,0,0,107.8665,93.4667,1.7251,-14.3999,20,
125,1,3,2,177,0,46.1465,285.9111,225.8318,0,0,0,3,0,0,0,225.8318,217.5042,1.9168,-8.3276,30,
125,1,3,2,178,0,108.3036,169.7062,19.8785,0,0,0,2,0,0,0,169.7062,323.9505,2.2502,154.2443,0,
125,1,3,2,179,1,259.2268,109.3944,138.7309,3,2,1,2,0,1,0,109.3944,NaN,100000,999,0,
125,1,3,2,180,1,17.2394,78.5482,169.7217,1,2,3,1,1,0,0,17.2394,41.4875,1.3835,24.2481,10,
125,1,4,2,181,1,228.2734,195.1307,18.9289,2,3,1,2,1,0,0,195.1307,183.0074,1.4251,-12.1233,20,
125,1,4,2,182,0,109.9695,258.0224,229.7245,0,0,0,3,0,0,0,229.7245,227.9357,1.8169,-1.7888,40,
125,1,4,2,183,1,285.552,166.0832,199.0551,1,2,3,1,1,0,0,285.552,358.5187,2.1001,72.9666,0,
125,1,4,2,184,0,108.221,255.3397,226.0396,0,0,0,3,0,0,0,226.0396,149.3037,1.8168,-76.7358,0,
125,1,4,2,185,1,319.6343,15.0415,79.1231,2,3,1,2,1,0,0,15.0415,356.684,0.83338,-18.3575,20,
125,1,4,2,186,1,289.6135,166.6016,349.2877,2,3,1,2,1,0,0,166.6016,323.0333,1.4502,156.4317,0,
125,1,4,2,187,1,135.0642,315.9331,77.4262,1,2,3,1,1,0,0,135.0642,51.1624,14.7593,-83.9019,0,
125,1,4,2,188,1,137.8393,227.1325,45.3812,1,2,3,1,1,0,0,137.8393,115.5654,1.7751,-22.2739,10,
125,1,4,2,189,0,169.7982,15.4454,288.9887,0,0,0,1,0,0,0,169.7982,151.6018,0.96678,-18.1964,20,
125,1,4,2,190,0,137.5494,76.9126,259.5274,0,0,0,2,0,0,0,76.9126,183.4154,1.2668,106.5028,0,
125,1,4,2,191,1,345.9222,75.2283,289.4252,1,3,2,1,1,0,0,345.9222,330.7963,2.0835,-15.1259,20,
125,1,4,2,192,0,48.1135,105.3177,286.8675,0,0,0,2,0,0,0,105.3177,129.1232,1.9168,23.8055,10,
125,1,4,2,193,1,76.7084,347.7434,17.3027,1,2,3,2,0,1,0,347.7434,NaN,100000,999,0,
125,1,4,2,194,1,257.1951,105.7453,195.1414,1,3,2,2,0,0,1,105.7453,87.0606,0.91677,-18.6847,20,
125,1,4,2,195,1,317.404,105.3326,79.4889,1,3,2,1,1,0,0,317.404,298.9208,1.7418,-18.4832,20,
125,1,4,2,196,0,76.7007,169.5946,107.2813,0,0,0,1,0,0,0,76.7007,72.3399,1.4251,-4.3608,30,
125,1,4,2,197,1,347.9954,168.0078,108.2471,3,1,2,2,0,0,1,168.0078,157.5186,1.9751,-10.4892,30,
125,1,4,2,198,0,136.8788,169.3173,286.4599,0,0,0,1,0,0,0,136.8788,327.4563,1.7252,-169.4225,0,
125,1,4,2,199,0,196.4215,17.1766,229.5188,0,0,0,3,0,0,0,229.5188,214.3171,1.65,-15.2017,20,
125,1,4,2,200,1,287.6707,136.834,196.8197,1,3,2,1,1,0,0,287.6707,292.119,2.6419,4.4483,30,
125,1,4,2,201,1,229.9196,49.8989,16.2508,1,2,3,1,1,0,0,229.9196,235.8771,2.2502,5.9575,30,
125,1,4,2,202,1,195.0178,169.0762,228.1921,3,2,1,3,1,0,0,228.1921,318.3248,2.1251,90.1327,0,
125,1,4,2,203,0,257.3316,289.7577,49.825,0,0,0,3,0,0,0,49.825,43.997,1.2251,-5.828,30,
125,1,4,2,204,1,259.0554,288.5523,139.8512,2,1,3,3,0,0,1,139.8512,138.8631,1.4335,-0.98815,40,
125,1,4,2,205,1,286.2257,165.3206,76.3157,1,3,2,1,1,0,0,286.2257,250.9782,1.9501,-35.2474,0,
125,1,4,2,206,1,315.0382,228.0546,17.0404,1,2,3,1,1,0,0,315.0382,280.9493,1.8585,-34.0889,0,
125,1,4,2,207,0,108.5521,168.4433,16.6047,0,0,0,2,0,0,0,168.4433,80.1295,2.5336,-88.3138,0,
125,1,4,2,208,1,75.8955,138.1723,319.8148,3,1,2,3,1,0,0,319.8148,321.0989,1.1251,1.2841,40,
125,1,4,2,209,1,169.5658,108.4126,319.7337,1,2,3,1,1,0,0,169.5658,168.8272,0.93344,-0.73861,40,
125,1,4,2,210,0,315.4142,19.752,75.0819,0,0,0,2,0,0,0,19.752,28.7931,1.6001,9.0411,30,
125,1,4,2,211,1,317.3943,106.5406,48.7222,3,2,1,1,0,0,1,317.3943,311.1244,1.6251,-6.2699,30,
125,1,4,2,212,1,286.3409,257.7512,45.9026,3,2,1,3,1,0,0,45.9026,46.107,1.5251,0.20445,40,
125,1,4,2,213,0,77.0324,49.759,139.5599,0,0,0,1,0,0,0,77.0324,69.4905,1.7501,-7.5419,30,
125,1,4,2,214,0,318.0144,166.8875,138.3247,0,0,0,3,0,0,0,138.3247,153.368,2.2667,15.0434,20,
125,1,4,2,215,0,198.4041,109.616,45.7642,0,0,0,1,0,0,0,198.4041,42.1048,2.4251,-156.2993,0,
125,1,4,2,216,0,45.5504,196.3961,258.8382,0,0,0,3,0,0,0,258.8382,238.1693,1.7,-20.6689,20,
125,1,4,2,217,0,226.2324,48.3037,346.647,0,0,0,2,0,0,0,48.3037,41.0908,1.1834,-7.2128,30,
125,1,4,2,218,1,49.0048,137.7749,107.0944,2,1,3,1,0,1,0,49.0048,NaN,100000,999,0,
125,1,4,2,219,1,167.4934,18.693,255.0638,2,3,1,3,0,1,0,255.0638,NaN,100000,999,0,
125,1,4,2,220,0,288.6709,195.521,228.9629,0,0,0,1,0,0,0,288.6709,322.2827,3.2418,33.6118,0,
125,1,4,2,221,1,165.2439,196.5692,108.2082,3,1,2,3,1,0,0,108.2082,116.7051,1.7751,8.4969,30,
125,1,4,2,222,1,48.3979,197.8389,288.2589,3,2,1,2,0,1,0,197.8389,NaN,100000,999,0,
125,1,4,2,223,1,109.8933,45.5568,136.9804,1,2,3,1,1,0,0,109.8933,142.101,1.1834,32.2077,0,
125,1,4,2,224,0,78.9946,289.6512,345.0236,0,0,0,2,0,0,0,289.6512,305.6614,1.4418,16.0102,20,
125,1,4,2,225,0,165.1751,197.0274,76.2483,0,0,0,2,0,0,0,197.0274,172.0426,2.3584,-24.9848,10,
125,1,4,2,226,1,138.6715,347.4974,169.7165,1,3,2,1,1,0,0,138.6715,137.0138,1.5084,-1.6577,40,
125,1,4,2,227,1,167.6721,77.1758,345.7885,1,2,3,2,0,1,0,77.1758,NaN,100000,999,0,
125,1,4,2,228,1,79.4084,198.6705,227.0322,3,2,1,1,0,0,1,79.4084,70.8107,1.2084,-8.5977,30,
125,1,4,2,229,1,256.2999,78.9343,137.5579,1,3,2,1,1,0,0,256.2999,249.6,1.8668,-6.6999,30,
125,1,4,2,230,0,258.2465,78.8143,167.8784,0,0,0,2,0,0,0,78.8143,78.1086,1.125,-0.7057,40,
125,1,4,2,231,1,315.1631,197.1487,45.1863,3,1,2,1,0,1,0,315.1631,NaN,100000,999,0,
125,1,4,2,232,1,166.0708,105.0193,259.4029,3,2,1,1,0,0,1,166.0708,331.0558,1.9002,164.9849,0,
125,1,4,2,233,1,285.4293,17.6559,49.4428,2,1,3,2,1,0,0,17.6559,349.7584,1.9668,-27.8975,10,
125,1,4,2,234,0,137.0614,166.811,48.907,0,0,0,2,0,0,0,166.811,146.3542,1.6251,-20.4569,20,
125,1,4,2,235,0,258.397,19.884,195.6273,0,0,0,1,0,0,0,258.397,231.9676,1.2334,-26.4295,10,
125,1,4,2,236,0,167.6627,229.6285,109.4954,0,0,0,2,0,0,0,229.6285,238.4863,1.6001,8.8578,30,
125,1,4,2,237,1,289.3028,79.6955,258.401,3,1,2,3,1,0,0,258.401,258.6165,1.4834,0.21552,40,
125,1,4,2,238,0,167.6572,228.169,345.0705,0,0,0,1,0,0,0,167.6572,171.7347,1.5084,4.0774,30,
125,1,4,2,239,0,78.7617,259.4745,169.2092,0,0,0,1,0,0,0,78.7617,86.5864,2.0001,7.8247,30,
125,1,4,2,240,0,138.6643,105.5838,18.7302,0,0,0,2,0,0,0,105.5838,116.1201,1.4417,10.5363,30,
125,1,5,2,241,0,167.0559,316.1824,255.9753,0,0,0,2,0,0,0,316.1824,320.7371,2.2668,4.5546,30,
125,1,5,2,242,1,225.5146,49.9844,196.7948,2,3,1,2,1,0,0,49.9844,41.7979,0.84174,-8.1865,30,
125,1,5,2,243,1,77.9323,198.8902,258.6385,3,2,1,2,0,1,0,198.8902,NaN,100000,999,0,
125,1,5,2,244,1,228.7567,317.6118,347.4522,2,1,3,2,1,0,0,317.6118,348.2325,1.8168,30.6207,0,
125,1,5,2,245,1,16.2011,225.3515,286.5002,1,2,3,1,1,0,0,16.2011,42.6677,1.6417,26.4665,10,
125,1,5,2,246,1,166.4226,49.1528,229.0918,3,1,2,3,1,0,0,229.0918,280.3232,1.7918,51.2314,0,
125,1,5,2,247,0,48.2004,108.9378,136.35,0,0,0,2,0,0,0,108.9378,128.7073,1.5001,19.7695,20,
125,1,5,2,248,1,135.4472,258.6564,229.5193,1,2,3,1,1,0,0,135.4472,53.9194,2.1585,-81.5278,0,
125,1,5,2,249,0,139.9175,46.2417,348.0318,0,0,0,1,0,0,0,139.9175,136.8097,1.3501,-3.1078,30,
125,1,5,2,250,0,287.9163,196.3027,345.4241,0,0,0,2,0,0,0,196.3027,196.4616,2.1834,0.15886,40,
125,1,5,2,251,1,199.6498,106.4098,345.8444,2,3,1,2,1,0,0,106.4098,120.8052,1.6168,14.3954,20,
125,1,5,2,252,1,169.1344,316.5048,346.9194,2,1,3,2,1,0,0,316.5048,326.6971,1.5418,10.1923,30,
125,1,5,2,253,1,195.6162,138.6794,225.7831,3,2,1,3,1,0,0,225.7831,292.8347,4.217,67.0516,0,
125,1,5,2,254,1,105.6737,316.6189,199.7527,2,3,1,2,1,0,0,316.6189,315.3033,1.9001,-1.3157,40,
125,1,5,2,255,1,319.0859,286.8877,49.863,2,1,3,2,1,0,0,286.8877,305.9648,1.4668,19.077,20,
125,1,5,2,256,0,169.9745,197.4529,47.5173,0,0,0,3,0,0,0,47.5173,29.7857,1.1335,-17.7315,20,
125,1,5,2,257,1,108.6293,256.6972,346.3634,2,3,1,1,0,0,1,108.6293,90.8734,1.4084,-17.7559,20,
125,1,5,2,258,1,315.1454,285.681,18.4728,1,3,2,1,1,0,0,315.1454,306.5311,1.6668,-8.6144,30,
125,1,5,2,259,0,345.3735,195.9123,165.1584,0,0,0,2,0,0,0,195.9123,192.849,2.4584,-3.0633,30,
125,1,5,2,260,1,48.6624,345.8147,229.6054,2,1,3,2,1,0,0,345.8147,354.5846,1.2667,8.7699,30,
125,1,5,2,261,0,75.0066,49.9063,17.851,0,0,0,3,0,0,0,17.851,40.5693,1.0417,22.7183,10,
125,1,5,2,262,1,108.7804,256.4412,78.0309,2,3,1,3,0,1,0,78.0309,NaN,100000,999,0,
125,1,5,2,263,0,136.1479,165.0346,318.8332,0,0,0,1,0,0,0,136.1479,152.6301,1.1084,16.4822,20,
125,1,5,2,264,1,197.5948,19.1099,348.1851,3,1,2,1,0,1,0,197.5948,NaN,100000,999,0,
125,1,5,2,265,1,107.0495,196.8559,226.1343,3,2,1,1,0,0,1,107.0495,135.673,1.4417,28.6235,10,
125,1,5,2,266,0,168.9651,139.0778,48.7606,0,0,0,1,0,0,0,168.9651,160.5428,1.1417,-8.4223,30,
125,1,5,2,267,1,317.7818,139.8454,168.4456,1,3,2,1,1,0,0,317.7818,307.4796,1.4085,-10.3022,30,
125,1,5,2,268,0,345.0331,197.9865,288.2959,0,0,0,2,0,0,0,197.9865,213.231,1.5168,15.2444,20,
125,1,5,2,269,0,168.9406,229.348,288.9377,0,0,0,3,0,0,0,288.9377,303.2994,1.5585,14.3617,20,
125,1,5,2,270,1,165.9414,106.621,288.5802,2,1,3,2,1,0,0,106.621,108.6387,1.3584,2.0177,40,
125,1,5,2,271,1,168.5983,256.5138,47.2951,3,2,1,3,1,0,0,47.2951,28.7745,1.1751,-18.5206,20,
125,1,5,2,272,1,17.1214,319.5277,287.0866,3,1,2,2,0,0,1,319.5277,330.8591,1.9918,11.3314,30,
125,1,5,2,273,0,285.9294,16.4572,317.3083,0,0,0,2,0,0,0,16.4572,345.8329,1.2002,-30.6244,0,
125,1,5,2,274,1,135.8698,195.5877,105.8702,2,3,1,1,0,0,1,135.8698,114.1646,0.97506,-21.7052,10,
125,1,5,2,275,1,107.3868,259.4494,195.3254,1,2,3,3,0,0,1,195.3254,180.1688,1.7085,-15.1566,20,
125,1,5,2,276,1,136.9238,347.8132,168.1692,2,3,1,3,0,1,0,168.1692,NaN,100000,999,0,
125,1,5,2,277,1,227.7422,136.0392,108.9229,1,2,3,1,1,0,0,227.7422,227.9181,0.84171,0.1759,40,
125,1,5,2,278,1,138.9978,348.9808,289.7704,3,2,1,3,1,0,0,289.7704,295.8586,0.54172,6.0882,30,
125,1,5,2,279,0,136.8617,167.0285,17.1941,0,0,0,2,0,0,0,167.0285,152.6111,2.4169,-14.4174,20,
125,1,5,2,280,0,318.5183,259.5948,138.3004,0,0,0,3,0,0,0,138.3004,149.2384,2.4669,10.938,30,
125,1,5,2,281,1,225.1476,257.3617,288.3922,3,1,2,3,1,0,0,288.3922,299.9045,0.96668,11.5123,30,
125,1,5,2,282,0,19.5042,105.6908,48.9704,0,0,0,2,0,0,0,105.6908,93.642,1.5001,-12.0488,20,
125,1,5,2,283,1,45.9366,77.7282,136.2756,1,3,2,1,1,0,0,45.9366,24.5891,2.1668,-21.3475,10,
125,1,5,2,284,1,169.4306,45.747,257.1734,1,3,2,1,1,0,0,169.4306,149.588,1.0584,-19.8426,20,
125,1,5,2,285,0,287.5569,16.0754,106.7305,0,0,0,2,0,0,0,16.0754,357.3024,1.7584,-18.773,20,
125,1,5,2,286,1,287.3987,75.9933,316.1951,2,3,1,3,0,1,0,316.1951,NaN,100000,999,0,
125,1,5,2,287,1,259.6331,285.4745,76.8771,2,3,1,1,0,0,1,259.6331,278.2645,1.5085,18.6314,20,
125,1,5,2,288,0,197.3872,316.5277,47.5817,0,0,0,3,0,0,0,47.5817,58.1818,1.2668,10.6002,30,
125,1,5,2,289,0,319.7979,108.851,79.3751,0,0,0,3,0,0,0,79.3751,309.0698,1.4833,-130.3052,0,
125,1,5,2,290,1,16.3184,229.58,348.0752,3,2,1,3,1,0,0,348.0752,338.4305,0.80849,-9.6446,30,
125,1,5,2,291,1,347.7596,17.0191,198.7506,2,1,3,1,0,1,0,347.7596,NaN,100000,999,0,
125,1,5,2,292,1,229.2868,75.9901,315.778,2,1,3,2,1,0,0,75.9901,59.718,0.675,-16.2721,20,
125,1,5,2,293,0,76.7418,17.4316,258.3976,0,0,0,3,0,0,0,258.3976,284.569,2.7086,26.1714,10,
125,1,5,2,294,0,139.9652,345.4822,196.5657,0,0,0,3,0,0,0,196.5657,171.2767,1.4501,-25.289,10,
125,1,5,2,295,1,258.5304,135.1951,198.0815,2,1,3,1,0,1,0,258.5304,NaN,100000,999,0,
125,1,5,2,296,0,79.9196,45.2887,106.9827,0,0,0,3,0,0,0,106.9827,25.2898,2.0753,-81.6929,0,
125,1,5,2,297,1,139.4131,317.1872,79.1748,2,1,3,3,0,0,1,79.1748,48.3029,1.0833,-30.8719,0,
125,1,5,2,298,0,169.0204,227.8133,108.7544,0,0,0,1,0,0,0,169.0204,173.0704,0.80845,4.05,30,
125,1,5,2,299,1,15.6194,315.9312,168.2325,1,2,3,1,1,0,0,15.6194,172.3492,1.5835,156.7298,0,
125,1,5,2,300,1,108.8763,47.9592,16.8809,1,2,3,3,0,0,1,16.8809,358.9441,2.3668,-17.9368,20,
125,1,6,2,301,0,46.9234,135.2004,227.9147,0,0,0,1,0,0,0,46.9234,51.505,1.6168,4.5816,30,
125,1,6,2,302,0,195.7893,347.5433,258.0165,0,0,0,3,0,0,0,258.0165,279.8965,1.2001,21.88,10,
125,1,6,2,303,0,16.8971,197.9642,135.3425,0,0,0,2,0,0,0,197.9642,197.1829,1.7251,-0.78137,40,
125,1,6,2,304,0,347.1749,287.7893,258.1939,0,0,0,1,0,0,0,347.1749,318.6113,1.7084,-28.5636,10,
125,1,6,2,305,1,16.4771,196.8306,76.7452,2,3,1,2,1,0,0,196.8306,180.3713,1.8168,-16.4593,20,
125,1,6,2,306,1,317.1352,167.8886,349.4976,3,1,2,2,0,0,1,167.8886,174.2459,1.9835,6.3573,30,
125,1,6,2,307,0,349.4673,318.2654,15.2014,0,0,0,1,0,0,0,349.4673,330.6444,1.9668,-18.8228,20,
125,1,6,2,308,1,348.6462,168.243,137.3733,2,1,3,2,1,0,0,168.243,167.6743,1.4585,-0.56867,40,
125,1,6,2,309,1,136.4477,45.0925,348.5075,2,1,3,2,1,0,0,45.0925,53.0895,1.0251,7.9969,30,
125,1,6,2,310,1,315.7111,256.8779,168.9678,2,1,3,2,1,0,0,256.8779,224.6435,1.8667,-32.2344,0,
125,1,6,2,311,1,169.758,196.7334,286.4866,1,3,2,1,1,0,0,169.758,162.5697,1.1584,-7.1883,30,
125,1,6,2,312,1,259.5246,346.4085,138.0694,1,2,3,2,0,1,0,346.4085,NaN,100000,999,0,
125,1,6,2,313,0,225.0449,48.5914,257.2471,0,0,0,1,0,0,0,225.0449,205.0107,1.6584,-20.0343,20,
125,1,6,2,314,1,109.9422,346.2555,196.5774,1,3,2,1,1,0,0,109.9422,119.8078,1.475,9.8657,30,
125,1,6,2,315,0,46.3042,227.4654,109.2792,0,0,0,3,0,0,0,109.2792,82.9409,1.2751,-26.3382,10,
125,1,6,2,316,0,257.3016,227.5784,76.36,0,0,0,3,0,0,0,76.36,79.359,1.6668,2.9991,40,
125,1,6,2,317,1,257.7944,16.1293,135.5226,1,2,3,2,0,1,0,16.1293,NaN,100000,999,0,
125,1,6,2,318,1,19.299,47.9853,288.2738,2,1,3,1,0,1,0,19.299,NaN,100000,999,0,
125,1,6,2,319,1,195.14,255.3342,79.6353,3,1,2,3,1,0,0,79.6353,88.2672,1.3251,8.6319,30,
125,1,6,2,320,1,15.1824,255.3184,106.6144,1,3,2,2,0,0,1,255.3184,236.2454,1.9668,-19.073,20,
125,1,6,2,321,0,107.9897,225.1151,19.4971,0,0,0,1,0,0,0,107.9897,119.5324,0.70001,11.5427,30,
125,1,6,2,322,0,197.2525,47.8892,285.3742,0,0,0,2,0,0,0,47.8892,40.1989,0.93345,-7.6903,30,
125,1,6,2,323,1,17.2564,316.2498,139.7772,2,3,1,2,1,0,0,316.2498,327.5804,1.8251,11.3305,30,
125,1,6,2,324,0,17.2228,288.1376,347.6732,0,0,0,3,0,0,0,347.6732,344.7153,1.0668,-2.9579,40,
125,1,6,2,325,1,317.5363,165.5686,257.4522,3,1,2,3,1,0,0,257.4522,309.3774,1.2085,51.9252,0,
125,1,6,2,326,1,47.5541,317.8229,199.9686,2,1,3,2,1,0,0,317.8229,318.6158,1.1251,0.79291,40,
125,1,6,2,327,0,106.6799,75.7242,346.2244,0,0,0,2,0,0,0,75.7242,77.6249,0.9584,1.9006,40,
125,1,6,2,328,1,169.2888,79.31,346.5665,1,3,2,3,0,1,0,346.5665,NaN,100000,999,0,
125,1,6,2,329,1,319.3634,106.4291,198.2842,3,1,2,3,1,0,0,198.2842,325.7425,1.7418,127.4583,0,
125,1,6,2,330,1,349.5954,197.0535,78.6618,3,1,2,1,0,1,0,349.5954,NaN,100000,999,0,
125,1,6,2,331,1,15.0076,347.81,287.7324,3,1,2,3,1,0,0,287.7324,245.5146,1.7918,-42.2178,0,
125,1,6,2,332,1,285.9061,227.1312,255.4908,1,3,2,1,1,0,0,285.9061,242.4525,1.8668,-43.4536,0,
125,1,6,2,333,1,345.6878,197.1204,228.8228,3,1,2,3,1,0,0,228.8228,312.1854,1.4667,83.3626,0,
125,1,6,2,334,1,165.8893,259.9342,75.085,2,1,3,1,0,1,0,165.8893,NaN,100000,999,0,
125,1,6,2,335,1,18.1545,289.4599,318.367,1,2,3,1,1,0,0,18.1545,44.6007,1.2418,26.4461,10,
125,1,6,2,336,1,227.6908,319.5507,166.7535,1,3,2,3,0,1,0,166.7535,NaN,100000,999,0,
125,1,6,2,337,0,256.578,109.9701,229.9195,0,0,0,1,0,0,0,256.578,62.3049,1.7085,165.7269,0,
125,1,6,2,338,1,258.626,319.1718,285.0945,3,2,1,1,0,0,1,258.626,246.4638,1.3834,-12.1622,20,
125,1,6,2,339,0,289.6574,136.8901,18.0884,0,0,0,1,0,0,0,289.6574,250.2322,1.3917,-39.4252,0,
125,1,6,2,340,1,107.9087,195.499,225.833,3,1,2,3,1,0,0,225.833,245.9606,1.1917,20.1275,20,
125,1,6,2,341,0,19.4256,46.0482,167.4018,0,0,0,2,0,0,0,46.0482,37.9533,1.3917,-8.0949,30,
125,1,6,2,342,1,78.6958,106.2681,18.5963,1,2,3,2,0,1,0,106.2681,NaN,100000,999,0,
125,1,6,2,343,0,258.1371,347.3141,105.6472,0,0,0,3,0,0,0,105.6472,82.6293,1.7501,-23.0179,10,
125,1,6,2,344,0,229.993,137.5676,346.9392,0,0,0,1,0,0,0,229.993,261.7231,1.7001,31.7301,0,
125,1,6,2,345,1,199.8122,16.5687,48.9854,2,1,3,2,1,0,0,16.5687,27.5665,0.91683,10.9978,30,
125,1,6,2,346,1,49.5963,169.9447,79.663,2,1,3,3,0,0,1,79.663,33.8978,1.2917,-45.7652,0,
125,1,6,2,347,1,195.941,315.5034,346.4328,2,1,3,2,1,0,0,315.5034,43.4425,1.1334,87.939,0,
125,1,6,2,348,1,106.7758,228.1557,19.3227,1,3,2,1,1,0,0,106.7758,99.2976,1.2168,-7.4781,30,
125,1,6,2,349,1,16.1481,136.7947,46.8158,3,1,2,3,1,0,0,46.8158,11.4486,2.1918,-35.3673,0,
125,1,6,2,350,0,346.4404,166.8831,225.7325,0,0,0,1,0,0,0,346.4404,325.306,1.9668,-21.1344,10,
125,1,6,2,351,1,255.7971,226.3939,18.2247,3,2,1,1,0,0,1,255.7971,217.6032,1.3751,-38.1939,0,
125,1,6,2,352,0,75.5483,347.8292,256.3717,0,0,0,3,0,0,0,256.3717,73.6324,1.3084,177.2608,0,
125,1,6,2,353,1,288.1388,77.2337,19.0555,1,3,2,1,1,0,0,288.1388,267.2511,1.6918,-20.8877,20,
125,1,6,2,354,0,196.9487,15.7521,166.6685,0,0,0,3,0,0,0,166.6685,163.6831,1.85,-2.9855,40,
125,1,6,2,355,0,106.9478,257.4507,79.4345,0,0,0,1,0,0,0,106.9478,110.6939,1.4169,3.746,30,
125,1,6,2,356,1,319.31,345.6282,258.2279,3,1,2,3,1,0,0,258.2279,248.9229,2.2168,-9.305,30,
125,1,6,2,357,1,138.9567,288.2831,107.7184,2,3,1,2,1,0,0,288.2831,60.4221,2.2501,132.1391,0,
125,1,6,2,358,0,315.156,289.1379,16.3213,0,0,0,3,0,0,0,16.3213,348.3036,1.1167,-28.0177,10,
125,1,6,2,359,0,258.0154,135.9201,225.4373,0,0,0,1,0,0,0,258.0154,190.1185,1.1917,-67.8969,0,
125,1,6,2,360,1,139.5235,198.8365,47.8133,2,1,3,2,1,0,0,198.8365,81.01,1.1,-117.8265,0,
125,1,7,1,361,1,137.7436,195.0777,75.4734,2,1,3,2,1,0,0,195.0777,169.8837,1.0334,-25.194,10,
125,1,7,1,362,1,256.7246,198.4634,348.583,1,2,3,1,1,0,0,256.7246,209.4721,1.2001,-47.2524,0,
125,1,7,1,363,1,135.1638,79.2181,258.8515,2,1,3,2,1,0,0,79.2181,76.026,1.1751,-3.1921,30,
125,1,7,1,364,1,318.2542,229.9111,195.9692,1,2,3,2,0,1,0,229.9111,60.3153,0.9917,-169.5958,0,
125,1,7,1,365,1,108.4551,288.2361,228.1172,3,1,2,3,1,0,0,228.1172,233.6251,1.6001,5.5079,30,
125,1,7,1,366,0,346.1287,288.3308,49.3567,0,0,0,1,0,0,0,346.1287,342.225,2.0418,-3.9037,30,
125,1,7,1,367,1,228.7525,46.6696,168.1642,3,2,1,3,1,0,0,168.1642,182.0139,1.7835,13.8498,20,
125,1,7,1,368,1,226.3755,139.1398,258.9639,1,2,3,3,0,0,1,258.9639,282.6512,1.3167,23.6873,10,
125,1,7,1,369,1,79.0965,319.6324,17.5706,3,1,2,2,0,0,1,319.6324,43.323,1.1917,83.6906,0,
125,1,7,1,370,1,319.6235,15.2778,76.9202,2,1,3,1,0,1,0,319.6235,308.2464,1.4168,-11.3772,30,
125,1,7,1,371,0,319.6585,285.5445,48.2585,0,0,0,1,0,0,0,319.6585,308.9957,1.7168,-10.6628,30,
125,1,7,1,372,0,106.2626,258.2717,15.3005,0,0,0,3,0,0,0,15.3005,20.3658,1.0418,5.0653,30,
125,1,7,1,373,0,49.0672,258.9382,345.6216,0,0,0,2,0,0,0,258.9382,282.4481,1.8001,23.5099,10,
125,1,7,1,374,1,166.1154,197.5488,18.9387,3,2,1,1,0,0,1,166.1154,176.9739,0.95,10.8585,30,
125,1,7,1,375,0,135.6449,196.0742,226.4641,0,0,0,1,0,0,0,135.6449,155.8578,0.84997,20.213,20,
125,1,7,1,376,1,258.7972,46.9971,227.8371,3,2,1,1,0,0,1,258.7972,210.6153,1.1751,-48.1819,0,
125,1,7,1,377,1,19.3937,136.9647,106.2132,3,1,2,3,1,0,0,106.2132,343.9151,1.7084,-122.2981,0,
125,1,7,1,378,1,198.1299,16.6345,346.5555,1,3,2,2,0,0,1,16.6345,34.287,1.8834,17.6524,20,
125,1,7,1,379,0,255.9533,317.2465,78.8433,0,0,0,2,0,0,0,317.2465,355.2723,1.3,38.0258,0,
125,1,7,1,380,1,106.7368,288.8994,198.5417,1,3,2,3,0,1,0,198.5417,197.8256,1.9668,-0.71613,40,
125,1,7,1,381,1,226.6913,289.8702,169.7739,1,3,2,1,1,0,0,226.6913,201.0191,0.84175,-25.6722,10,
125,1,7,1,382,1,75.0635,45.6611,226.9403,1,3,2,1,1,0,0,75.0635,69.2446,2.1252,-5.8189,30,
125,1,7,1,383,0,195.7207,48.1759,349.0121,0,0,0,2,0,0,0,48.1759,54.5074,1.0917,6.3315,30,
125,1,7,1,384,1,135.4763,286.2294,199.6733,3,1,2,2,0,0,1,286.2294,300.85,2.5502,14.6206,20,
125,1,7,1,385,0,107.2227,346.6329,286.4365,0,0,0,1,0,0,0,107.2227,138.0687,0.95835,30.846,0,
125,1,7,1,386,0,167.3073,257.9357,47.388,0,0,0,3,0,0,0,47.388,65.6781,2.2336,18.2902,20,
125,1,7,1,387,0,105.1816,45.943,347.8877,0,0,0,1,0,0,0,105.1816,117.9096,0.94173,12.7279,20,
125,1,7,1,388,0,197.7527,139.9306,168.4489,0,0,0,2,0,0,0,139.9306,150.1259,0.98336,10.1954,30,
125,1,7,1,389,1,106.463,49.1621,137.8526,2,3,1,2,1,0,0,49.1621,239.5898,0.65006,-169.5723,0,
125,1,7,1,390,0,18.0356,289.7875,76.6533,0,0,0,1,0,0,0,18.0356,326.9984,1.6501,-51.0371,0,
125,1,7,1,391,1,45.3576,315.0784,289.8684,3,1,2,3,1,0,0,289.8684,292.3305,1.4918,2.4622,40,
125,1,7,1,392,1,78.5901,105.9445,317.1697,3,1,2,3,1,0,0,317.1697,312.7196,0.85002,-4.4501,30,
125,1,7,1,393,1,319.7139,18.3713,226.9283,2,3,1,2,1,0,0,18.3713,22.2005,1.1668,3.8292,30,
125,1,7,1,394,1,196.9913,225.6865,319.7638,3,2,1,3,1,0,0,319.7638,301.6792,1.1501,-18.0847,20,
125,1,7,1,395,0,75.4069,138.9374,255.872,0,0,0,1,0,0,0,75.4069,56.7773,2.1752,-18.6296,20,
125,1,7,1,396,0,347.3247,229.1204,79.3594,0,0,0,3,0,0,0,79.3594,71.2228,1.0751,-8.1366,30,
125,1,7,1,397,0,199.4692,169.205,48.4164,0,0,0,1,0,0,0,199.4692,187.6995,1.3584,-11.7697,30,
125,1,7,1,398,1,106.0224,15.3143,48.1119,3,1,2,3,1,0,0,48.1119,288.0901,0.75002,-120.0218,0,
125,1,7,1,399,1,347.7221,289.2307,45.2035,1,3,2,1,1,0,0,347.7221,355.8356,2.6918,8.1135,30,
125,1,7,1,400,1,288.0459,259.8347,198.8666,1,3,2,1,1,0,0,288.0459,38.8765,1.9335,110.8306,0,
125,1,7,1,401,0,138.5923,169.9766,75.4185,0,0,0,1,0,0,0,138.5923,119.7598,1.4668,-18.8325,20,
125,1,7,1,402,1,138.4918,47.2984,315.7883,3,1,2,3,1,0,0,315.7883,117.603,1.8585,161.8147,0,
125,1,7,1,403,1,318.6274,135.6952,168.1628,3,1,2,1,0,1,0,318.6274,139.4394,1.0918,-179.188,0,
125,1,7,1,404,1,198.2711,316.0916,345.5957,3,1,2,3,1,0,0,345.5957,304.8451,1.1168,-40.7506,0,
125,1,7,1,405,1,19.5455,197.2517,168.7432,1,3,2,3,0,1,0,168.7432,148.7624,1.4834,-19.9807,20,
125,1,7,1,406,0,196.9978,48.2766,317.8342,0,0,0,3,0,0,0,317.8342,318.8607,1.1918,1.0265,40,
125,1,7,1,407,1,18.4428,258.0195,106.9348,2,3,1,3,0,1,0,106.9348,115.5475,1.3667,8.6128,30,
125,1,7,1,408,0,18.089,137.9711,318.3294,0,0,0,3,0,0,0,318.3294,311.2471,1.0001,-7.0823,30,
125,1,7,1,409,0,285.4329,319.6342,15.7424,0,0,0,1,0,0,0,285.4329,354.9085,2.1833,69.4755,0,
125,1,7,1,410,0,167.2618,137.6668,287.6333,0,0,0,2,0,0,0,137.6668,58.3911,0.95842,-79.2757,0,
125,1,7,1,411,1,257.6176,76.6841,136.6619,3,1,2,3,1,0,0,136.6619,82.9113,1.5834,-53.7506,0,
125,1,7,1,412,1,318.6127,255.6712,169.2655,2,3,1,2,1,0,0,255.6712,255.2674,1.3834,-0.40387,40,
125,1,7,1,413,1,195.6399,167.3218,78.713,1,3,2,1,1,0,0,195.6399,181.0125,1.575,-14.6274,20,
125,1,7,1,414,0,255.0215,348.2625,136.8484,0,0,0,2,0,0,0,348.2625,344.0574,1.9251,-4.205,30,
125,1,7,1,415,0,169.2599,195.5886,108.2863,0,0,0,3,0,0,0,108.2863,356.669,1.0584,-111.6173,0,
125,1,7,1,416,0,108.0519,256.2399,137.5898,0,0,0,1,0,0,0,108.0519,127.4172,0.75842,19.3653,20,
125,1,7,1,417,1,315.776,79.9704,137.2512,1,2,3,1,1,0,0,315.776,308.3708,1.9919,-7.4052,30,
125,1,7,1,418,1,109.5576,45.6649,285.2108,2,1,3,3,0,0,1,285.2108,305.1626,1.5252,19.9517,20,
125,1,7,1,419,0,285.9982,227.6508,348.1368,0,0,0,1,0,0,0,285.9982,191.8461,0.71675,-94.1521,0,
125,1,7,1,420,1,285.1161,195.8806,349.3046,2,3,1,2,1,0,0,195.8806,205.5853,1.6502,9.7047,30,
125,1,8,1,421,1,139.1592,226.9724,75.4832,2,3,1,2,1,0,0,226.9724,198.5498,0.98345,-28.4225,10,
125,1,8,1,422,1,258.0006,19.9983,285.6459,3,1,2,3,1,0,0,285.6459,233.1153,1.1834,-52.5306,0,
125,1,8,1,423,0,347.863,79.9688,136.8148,0,0,0,2,0,0,0,79.9688,76.0603,1.7084,-3.9085,30,
125,1,8,1,424,1,138.8927,289.0539,347.4898,3,2,1,3,1,0,0,347.4898,125.5208,2.0335,138.031,0,
125,1,8,1,425,0,139.122,45.8653,229.3182,0,0,0,3,0,0,0,229.3182,272.9853,1.1834,43.6671,0,
125,1,8,1,426,1,138.0311,78.9619,49.1808,2,1,3,2,1,0,0,78.9619,36.9497,1.5668,-42.0122,0,
125,1,8,1,427,0,46.1867,195.6983,256.1037,0,0,0,2,0,0,0,195.6983,211.0089,2.5585,15.3106,20,
125,1,8,1,428,1,346.4768,289.5354,227.4644,3,2,1,3,1,0,0,227.4644,309.9373,1.2084,82.4729,0,
125,1,8,1,429,1,47.187,79.2999,15.0445,1,3,2,1,1,0,0,47.187,57.5192,1.5918,10.3322,30,
125,1,8,1,430,0,79.2645,348.4328,109.7906,0,0,0,2,0,0,0,348.4328,160.0227,1.6751,171.5899,0,
125,1,8,1,431,1,166.9384,345.2837,198.4479,3,2,1,3,1,0,0,198.4479,204.936,1.3667,6.4882,30,
125,1,8,1,432,0,46.1005,196.179,169.0506,0,0,0,3,0,0,0,169.0506,195.2401,1.6835,26.1894,10,
125,1,8,1,433,0,285.1488,259.3335,319.4721,0,0,0,2,0,0,0,259.3335,216.1005,1.5501,-43.2331,0,
125,1,8,1,434,0,315.0558,256.1726,168.5349,0,0,0,1,0,0,0,315.0558,274.7078,1.8335,-40.3481,0,
125,1,8,1,435,1,138.3282,106.1507,49.0244,2,3,1,2,1,0,0,106.1507,104.0676,1.4335,-2.0831,40,
125,1,8,1,436,0,167.1549,138.8245,349.9823,0,0,0,3,0,0,0,349.9823,321.8542,1.4335,-28.1281,10,
125,1,8,1,437,0,107.9765,77.5306,228.882,0,0,0,2,0,0,0,77.5306,64.6891,0.90007,-12.8414,20,
125,1,8,1,438,1,165.7078,228.0405,49.6531,3,2,1,1,0,0,1,165.7078,126.2522,1.0918,-39.4557,0,
125,1,8,1,439,1,348.1345,49.685,316.5997,2,1,3,3,0,0,1,316.5997,323.2067,1.3167,6.607,30,
125,1,8,1,440,1,75.7592,348.6651,45.1985,2,1,3,2,1,0,0,348.6651,30.4211,1.3834,41.756,0,
125,1,8,1,441,1,166.6833,319.4168,46.6683,3,2,1,3,1,0,0,46.6683,28.2424,1.1001,-18.4259,20,
125,1,8,1,442,1,78.6986,197.224,109.252,1,2,3,2,0,1,0,197.224,14.5493,1.3918,177.3254,0,
125,1,8,1,443,1,227.4811,166.4383,105.9151,1,3,2,1,1,0,0,227.4811,208.0014,1.0585,-19.4796,20,
125,1,8,1,444,0,226.7599,195.5008,288.965,0,0,0,1,0,0,0,226.7599,200.5565,1.1667,-26.2034,10,
125,1,8,1,445,1,228.4323,319.7786,106.5395,1,2,3,1,1,0,0,228.4323,186.289,0.00013761,-42.1433,0,
125,1,8,1,446,0,79.7326,317.4622,348.7411,0,0,0,1,0,0,0,79.7326,69.2911,1.3418,-10.4415,30,
125,1,8,1,447,0,45.9115,197.797,18.1324,0,0,0,3,0,0,0,18.1324,331.6469,1.0751,-46.4854,0,
125,1,8,1,448,1,18.6621,168.1551,287.341,3,2,1,3,1,0,0,287.341,359.5826,0.57507,72.2416,0,
125,1,8,1,449,1,136.0884,285.0426,346.5031,3,1,2,3,1,0,0,346.5031,338.9922,1.1334,-7.5109,30,
125,1,8,1,450,0,315.1533,349.0435,225.2357,0,0,0,2,0,0,0,349.0435,358.6381,2.1001,9.5946,30,
125,1,8,1,451,1,138.6936,315.0693,168.3956,2,3,1,3,0,1,0,168.3956,341.4159,1.2418,173.0203,0,
125,1,8,1,452,1,46.0342,105.1868,78.3168,3,2,1,3,1,0,0,78.3168,104.459,0.82497,26.1421,10,
125,1,8,1,453,0,165.0947,45.9217,15.1337,0,0,0,2,0,0,0,45.9217,38.6762,1.1418,-7.2455,30,
125,1,8,1,454,0,348.5217,318.8731,289.1133,0,0,0,3,0,0,0,289.1133,309.7179,1.6501,20.6046,20,
125,1,8,1,455,1,139.6704,47.9709,317.9655,2,1,3,2,1,0,0,47.9709,55.8262,1.0251,7.8553,30,
125,1,8,1,456,1,286.0016,45.0729,168.8158,2,3,1,2,1,0,0,45.0729,52.0902,1.9168,7.0173,30,
125,1,8,1,457,1,195.2941,256.1198,15.8399,3,1,2,3,1,0,0,15.8399,13.626,2.1501,-2.2139,40,
125,1,8,1,458,1,138.5184,169.1855,258.6365,1,2,3,1,1,0,0,138.5184,159.9972,1.15,21.4788,10,
125,1,8,1,459,1,19.902,108.5641,259.1282,3,2,1,2,0,1,0,108.5641,89.9368,1.3084,-18.6273,20,
125,1,8,1,460,1,108.5872,226.0126,318.2188,2,1,3,2,1,0,0,226.0126,213.9287,1.2501,-12.0839,20,
125,1,8,1,461,0,19.6597,105.4666,288.6939,0,0,0,3,0,0,0,288.6939,311.7238,0.88342,23.03,10,
125,1,8,1,462,1,109.9663,18.7877,196.3753,3,1,2,2,0,0,1,18.7877,31.4149,0.90009,12.6272,20,
125,1,8,1,463,0,139.1878,168.7421,197.9193,0,0,0,3,0,0,0,197.9193,162.2688,1.5168,-35.6505,0,
125,1,8,1,464,0,136.7104,259.36,16.3401,0,0,0,3,0,0,0,16.3401,9.945,1.8335,-6.3952,30,
125,1,8,1,465,1,136.4382,79.6219,316.4924,3,2,1,2,0,1,0,79.6219,13.0191,1.5417,-66.6028,0,
125,1,8,1,466,1,196.6333,136.0981,167.5911,3,1,2,3,1,0,0,167.5911,155.1217,1.9085,-12.4694,20,
125,1,8,1,467,1,226.3809,318.4812,259.4068,3,2,1,3,1,0,0,259.4068,238.8524,1.7584,-20.5544,20,
125,1,8,1,468,0,18.9916,169.3163,138.9898,0,0,0,2,0,0,0,169.3163,167.2505,2.1585,-2.0658,40,
125,1,8,1,469,1,15.3526,75.3001,108.3079,3,1,2,3,1,0,0,108.3079,87.551,2.4585,-20.7569,20,
125,1,8,1,470,0,46.2786,346.8916,169.9687,0,0,0,1,0,0,0,46.2786,45.4361,1.9335,-0.8425,40,
125,1,8,1,471,1,345.2622,106.6171,78.9984,3,1,2,3,1,0,0,78.9984,64.7117,2.8585,-14.2867,20,
125,1,8,1,472,0,348.2674,166.2214,78.7896,0,0,0,3,0,0,0,78.7896,75.8339,2.5501,-2.9557,40,
125,1,8,1,473,1,106.559,257.9588,76.8881,1,2,3,2,0,1,0,257.9588,240.1685,2.8418,-17.7904,20,
125,1,8,1,474,1,317.6116,229.0412,257.2379,2,1,3,3,0,0,1,257.2379,86.3623,1.9086,-170.8756,0,
125,1,8,1,475,1,287.5106,197.8513,19.2574,1,3,2,1,1,0,0,287.5106,287.3399,1.6834,-0.17072,40,
125,1,8,1,476,0,227.7234,199.2796,318.2134,0,0,0,1,0,0,0,227.7234,209.1683,1.9669,-18.5551,20,
125,1,8,1,477,1,76.0947,286.1864,255.0432,1,3,2,3,0,1,0,255.0432,267.5748,2.3168,12.5316,20,
125,1,8,1,478,1,317.4562,198.8708,225.7391,2,3,1,3,0,1,0,225.7391,209.96,1.6417,-15.7791,20,
125,1,8,1,479,1,46.7157,195.3171,168.0624,1,3,2,2,0,0,1,195.3171,190.8741,1.7334,-4.443,30,
125,1,8,1,480,1,285.5423,79.2688,319.5543,3,1,2,3,1,0,0,319.5543,313.3708,1.2168,-6.1834,30,
