Subject,Session,Block,Condition,Trial,whetherCued,leftStim,rightStim,midStim,remCueLoc,fogCueLoc,neutralCueLoc,probeCueLoc,probeRem,probeForget,probeNeutral,Target,Estimate,RT,Error,Points
128,1,1,2,1,0,136.1214,256.3453,18.3652,0,0,0,3,0,0,0,18.3652,58.7797,3.0919,40.4146,0,
128,1,1,2,2,1,289.4795,225.4954,105.2208,2,3,1,2,1,0,0,225.4954,237.757,2.3752,12.2615,20,
128,1,1,2,3,1,347.5064,287.1586,109.9878,1,3,2,1,1,0,0,347.5064,353.441,2.3753,5.9346,30,
128,1,1,2,4,0,348.6529,108.2324,289.1658,0,0,0,2,0,0,0,108.2324,181.0652,4.192,72.8329,0,
128,1,1,2,5,0,107.4617,228.4737,289.8637,0,0,0,3,0,0,0,289.8637,71.9836,1.9829,142.1199,0,
128,1,1,2,6,1,138.3022,255.2378,226.7439,1,3,2,2,0,0,1,255.2378,242.8476,1.7583,-12.3902,20,
128,1,1,2,7,1,197.5189,257.448,49.3852,1,3,2,1,1,0,0,197.5189,208.4907,2.0585,10.9717,30,
128,1,1,2,8,1,105.0963,165.4194,19.874,3,1,2,3,1,0,0,19.874,44.7368,2.0418,24.8628,10,
128,1,1,2,9,1,349.6502,286.9951,105.237,2,3,1,2,1,0,0,286.9951,341.4637,2.9503,54.4686,0,
128,1,1,2,10,1,259.389,197.9122,285.3534,3,2,1,3,1,0,0,285.3534,231.7633,1.9918,-53.5901,0,
128,1,1,2,11,1,317.5194,78.234,226.5387,2,1,3,2,1,0,0,78.234,68.3143,1.6169,-9.9198,30,
128,1,1,2,12,0,226.4331,199.0041,19.4806,0,0,0,2,0,0,0,199.0041,219.1597,3.6421,20.1556,20,
128,1,1,2,13,1,199.1477,319.2454,226.8627,2,3,1,2,1,0,0,319.2454,217.4122,2.1337,-101.8332,0,
128,1,1,2,14,1,198.7837,137.0852,229.8589,3,2,1,1,0,0,1,198.7837,196.0147,1.4584,-2.769,40,
128,1,1,2,15,1,317.252,136.0284,79.4983,2,3,1,2,1,0,0,136.0284,132.3356,2.0753,-3.6928,30,
128,1,1,2,16,1,166.9501,227.4895,288.474,3,1,2,3,1,0,0,288.474,279.1841,1.225,-9.2899,30,
128,1,1,2,17,0,255.5852,109.0734,346.6243,0,0,0,3,0,0,0,346.6243,355.1305,2.0335,8.5062,30,
128,1,1,2,18,0,19.1594,45.6717,75.3023,0,0,0,2,0,0,0,45.6717,51.6479,1.3917,5.9762,30,
128,1,1,2,19,1,139.9843,17.7677,197.5773,1,2,3,1,1,0,0,139.9843,165.194,1.8251,25.2097,10,
128,1,1,2,20,1,169.6556,105.9539,16.2929,3,2,1,1,0,0,1,169.6556,147.8672,1.4502,-21.7883,10,
128,1,1,2,21,1,198.6008,256.7345,227.585,1,3,2,1,1,0,0,198.6008,193.7677,1.0001,-4.8331,30,
128,1,1,2,22,1,47.1514,228.4688,289.7261,3,2,1,3,1,0,0,289.7261,240.7914,1.8251,-48.9347,0,
128,1,1,2,23,1,288.3452,197.5011,346.09,3,2,1,3,1,0,0,346.09,329.8589,1.3751,-16.2311,20,
128,1,1,2,24,1,229.3193,135.4885,169.5403,2,3,1,2,1,0,0,135.4885,129.8874,1.3418,-5.6011,30,
128,1,1,2,25,0,137.5392,347.928,18.8144,0,0,0,3,0,0,0,18.8144,4.1348,1.8168,-14.6796,20,
128,1,1,2,26,1,17.7694,108.4003,196.8359,3,1,2,3,1,0,0,196.8359,198.9273,1.7002,2.0914,40,
128,1,1,2,27,0,135.7013,16.3007,195.4341,0,0,0,1,0,0,0,135.7013,146.3657,1.3002,10.6644,30,
128,1,1,2,28,0,346.1034,285.0065,135.9459,0,0,0,1,0,0,0,346.1034,149.6826,1.0751,163.5792,0,
128,1,1,2,29,1,105.3418,17.1816,75.8693,3,2,1,3,1,0,0,75.8693,43.9226,1.3168,-31.9466,0,
128,1,1,2,30,1,166.1401,16.8543,319.4546,1,3,2,1,1,0,0,166.1401,166.6328,0.90007,0.49264,40,
128,1,1,2,31,1,347.6621,78.5825,225.8965,3,2,1,3,1,0,0,225.8965,216.9809,1.8585,-8.9156,30,
128,1,1,2,32,1,169.6783,319.0936,48.6413,2,1,3,1,0,1,0,169.6783,NaN,100000,999,0,
128,1,1,2,33,1,108.812,17.8803,78.7383,3,2,1,3,1,0,0,78.7383,61.4746,1.8834,-17.2638,20,
128,1,1,2,34,0,347.6614,136.397,49.7312,0,0,0,3,0,0,0,49.7312,49.7806,1.6585,0.049476,40,
128,1,1,2,35,0,78.6346,196.8692,47.9079,0,0,0,1,0,0,0,78.6346,72.2867,2.2919,-6.3479,30,
128,1,1,2,36,1,45.7597,16.9855,196.8736,3,1,2,2,0,0,1,16.9855,57.0666,1.4833,40.0811,0,
128,1,1,2,37,1,138.2116,316.1063,79.1853,3,1,2,3,1,0,0,79.1853,66.7871,1.1,-12.3982,20,
128,1,1,2,38,1,319.2929,289.5553,168.4982,3,2,1,3,1,0,0,168.4982,184.6184,1.5918,16.1203,20,
128,1,1,2,39,1,287.6468,199.1499,49.2938,1,2,3,3,0,0,1,49.2938,54.2186,1.1751,4.9248,30,
128,1,1,2,40,1,169.2518,139.5582,198.1964,1,2,3,2,0,1,0,139.5582,NaN,100000,999,0,
128,1,1,2,41,0,169.1329,48.3844,286.038,0,0,0,3,0,0,0,286.038,300.559,1.0335,14.521,20,
128,1,1,2,42,0,287.2569,316.9132,48.9482,0,0,0,2,0,0,0,316.9132,58.4383,1.5501,101.5251,0,
128,1,1,2,43,0,228.7938,349.9761,315.9329,0,0,0,3,0,0,0,315.9329,24.9763,3.5337,69.0434,0,
128,1,1,2,44,1,285.9688,47.1618,258.7458,2,3,1,2,1,0,0,47.1618,52.8207,0.96683,5.6589,30,
128,1,1,2,45,0,19.6749,137.3974,346.159,0,0,0,1,0,0,0,19.6749,36.5916,1.8086,16.9167,20,
128,1,1,2,46,1,287.6548,259.506,317.7028,2,3,1,2,1,0,0,259.506,316.1883,2.2836,56.6823,0,
128,1,1,2,47,1,105.9911,165.9754,316.6342,1,2,3,1,1,0,0,105.9911,99.7325,1.4252,-6.2586,30,
128,1,1,2,48,0,109.0699,259.4922,77.1462,0,0,0,1,0,0,0,109.0699,102.2188,1.3835,-6.8511,30,
128,1,1,2,49,0,315.4649,347.3174,285.0467,0,0,0,1,0,0,0,315.4649,305.8111,1.9418,-9.6539,30,
128,1,1,2,50,1,77.1828,225.2461,105.2482,2,3,1,2,1,0,0,225.2461,233.548,2.2503,8.3019,30,
128,1,1,2,51,0,17.3062,228.1966,259.5867,0,0,0,2,0,0,0,228.1966,232.4512,2.6169,4.2545,30,
128,1,1,2,52,0,19.9049,195.6352,286.1612,0,0,0,2,0,0,0,195.6352,224.5941,1.2335,28.9589,10,
128,1,1,2,53,0,19.2845,75.217,318.4581,0,0,0,1,0,0,0,19.2845,14.2782,1.7419,-5.0063,30,
128,1,1,2,54,0,79.095,348.1246,228.6928,0,0,0,1,0,0,0,79.095,45.6427,1.5585,-33.4523,0,
128,1,1,2,55,0,49.4771,227.9126,257.9137,0,0,0,3,0,0,0,257.9137,224.3132,1.5418,-33.6005,0,
128,1,1,2,56,0,47.0319,136.931,228.049,0,0,0,2,0,0,0,136.931,130.578,2.2253,-6.3529,30,
128,1,1,2,57,0,77.6151,16.6265,49.1592,0,0,0,3,0,0,0,49.1592,41.5561,1.325,-7.6031,30,
128,1,1,2,58,0,137.6428,345.2572,78.7844,0,0,0,2,0,0,0,345.2572,167.5481,2.0084,-177.7091,0,
128,1,1,2,59,1,168.7425,317.7165,226.6907,3,2,1,2,0,1,0,317.7165,NaN,100000,999,0,
128,1,1,2,60,1,315.1258,197.0721,138.657,1,2,3,1,1,0,0,315.1258,322.0088,2.1918,6.883,30,
128,1,2,2,61,1,315.8145,169.192,195.8378,2,3,1,2,1,0,0,169.192,155.8806,1.0835,-13.3114,20,
128,1,2,2,62,0,109.7017,135.0292,228.0515,0,0,0,3,0,0,0,228.0515,226.6145,1.4418,-1.437,40,
128,1,2,2,63,1,256.4523,47.0128,289.3103,1,2,3,1,1,0,0,256.4523,218.2372,1.2251,-38.2151,0,
128,1,2,2,64,0,319.2054,76.7725,167.1503,0,0,0,3,0,0,0,167.1503,148.5414,2.0336,-18.6089,20,
128,1,2,2,65,1,289.8173,135.4295,167.5025,2,3,1,2,1,0,0,135.4295,147.6868,1.2251,12.2573,20,
128,1,2,2,66,1,46.5193,197.4165,346.6891,2,3,1,2,1,0,0,197.4165,177.3154,1.3667,-20.101,20,
128,1,2,2,67,1,79.9262,107.7974,169.668,1,2,3,1,1,0,0,79.9262,50.6297,1.5668,-29.2965,10,
128,1,2,2,68,1,135.5422,165.1806,228.0905,1,2,3,1,1,0,0,135.5422,110.9346,1.1335,-24.6076,10,
128,1,2,2,69,0,259.4502,346.651,166.1485,0,0,0,1,0,0,0,259.4502,243.1992,1.6168,-16.251,20,
128,1,2,2,70,0,135.5697,19.8928,79.243,0,0,0,2,0,0,0,19.8928,201.5801,1.3668,-178.3127,0,
128,1,2,2,71,1,285.5402,17.2994,137.2544,1,3,2,1,1,0,0,285.5402,250.1768,3.3004,-35.3634,0,
128,1,2,2,72,0,138.7045,347.534,165.9996,0,0,0,2,0,0,0,347.534,197.913,1.3752,-149.621,0,
128,1,2,2,73,1,169.3879,345.0718,46.4715,1,2,3,2,0,1,0,345.0718,NaN,100000,999,0,
128,1,2,2,74,1,227.7164,78.5126,19.7822,1,3,2,2,0,0,1,78.5126,135.1407,1.0917,56.6281,0,
128,1,2,2,75,1,78.8751,319.5709,48.9128,1,3,2,1,1,0,0,78.8751,65.7052,1.9084,-13.17,20,
128,1,2,2,76,0,48.4957,168.9813,137.2079,0,0,0,1,0,0,0,48.4957,64.7597,1.3584,16.2641,20,
128,1,2,2,77,1,315.7287,287.9252,345.3668,3,1,2,2,0,0,1,287.9252,310.3237,1.1752,22.3985,10,
128,1,2,2,78,0,286.8252,226.5457,315.6046,0,0,0,1,0,0,0,286.8252,311.3899,1.3085,24.5647,10,
128,1,2,2,79,0,256.6999,319.2336,46.2303,0,0,0,3,0,0,0,46.2303,64.5658,2.442,18.3355,20,
128,1,2,2,80,1,135.68,78.9445,105.462,1,3,2,1,1,0,0,135.68,121.2881,1.4918,-14.3919,20,
128,1,2,2,81,1,75.0988,319.8215,349.8519,1,2,3,1,1,0,0,75.0988,144.7505,0.82505,69.6517,0,
128,1,2,2,82,1,19.6916,226.2771,107.6658,3,2,1,3,1,0,0,107.6658,129.2444,1.9086,21.5786,10,
128,1,2,2,83,0,138.9798,226.1669,78.0042,0,0,0,3,0,0,0,78.0042,61.3448,1.5418,-16.6594,20,
128,1,2,2,84,1,346.4868,16.9821,317.1038,2,1,3,3,0,0,1,317.1038,305.8161,0.81671,-11.2877,30,
128,1,2,2,85,1,317.7541,79.3545,195.2113,1,3,2,1,1,0,0,317.7541,312.8951,1.9002,-4.859,30,
128,1,2,2,86,1,47.5997,169.9459,257.4496,1,2,3,1,1,0,0,47.5997,43.0054,2.0501,-4.5943,30,
128,1,2,2,87,0,79.0846,195.9474,105.6185,0,0,0,2,0,0,0,195.9474,201.7111,1.3585,5.7637,30,
128,1,2,2,88,1,76.6599,319.1987,286.8586,3,1,2,3,1,0,0,286.8586,293.5574,1.2668,6.6988,30,
128,1,2,2,89,1,135.784,76.6302,46.5703,1,2,3,1,1,0,0,135.784,63.2026,1.2501,-72.5814,0,
128,1,2,2,90,0,286.0726,228.3995,167.7865,0,0,0,2,0,0,0,228.3995,232.1706,1.4668,3.771,30,
128,1,2,2,91,1,287.0116,195.9092,139.2813,3,2,1,1,0,0,1,287.0116,295.1763,1.3918,8.1646,30,
128,1,2,2,92,1,225.9992,318.0367,107.7152,3,2,1,3,1,0,0,107.7152,102.302,0.75837,-5.4132,30,
128,1,2,2,93,0,48.791,169.4352,15.344,0,0,0,1,0,0,0,48.791,44.4263,1.7002,-4.3647,30,
128,1,2,2,94,0,16.9081,317.8384,169.4393,0,0,0,3,0,0,0,169.4393,165.3965,1.4834,-4.0428,30,
128,1,2,2,95,0,139.6308,166.4925,256.6904,0,0,0,1,0,0,0,139.6308,149.4244,1.1502,9.7935,30,
128,1,2,2,96,0,346.3991,77.235,47.9379,0,0,0,3,0,0,0,47.9379,227.5207,1.9502,179.5828,0,
128,1,2,2,97,0,349.442,316.1658,289.308,0,0,0,2,0,0,0,316.1658,306.6516,1.0918,-9.5142,30,
128,1,2,2,98,1,287.6372,108.625,348.0371,2,1,3,1,0,1,0,287.6372,NaN,100000,999,0,
128,1,2,2,99,1,349.0746,135.7025,259.3993,2,3,1,3,0,1,0,259.3993,NaN,100000,999,0,
128,1,2,2,100,0,15.4219,229.8604,285.1573,0,0,0,1,0,0,0,15.4219,10.7912,1.2251,-4.6306,30,
128,1,2,2,101,1,318.2673,77.4483,349.8643,3,1,2,3,1,0,0,349.8643,11.4129,1.1502,21.5486,10,
128,1,2,2,102,1,287.6205,225.601,105.889,3,2,1,2,0,1,0,225.601,NaN,100000,999,0,
128,1,2,2,103,1,77.9122,257.105,345.4603,1,2,3,1,1,0,0,77.9122,78.4068,0.91675,0.49467,40,
128,1,2,2,104,0,15.8762,165.966,258.0821,0,0,0,2,0,0,0,165.966,202.6258,1.4751,36.6598,0,
128,1,2,2,105,0,288.861,317.3768,18.4045,0,0,0,2,0,0,0,317.3768,304.0938,1.9252,-13.283,20,
128,1,2,2,106,1,139.1315,79.956,197.6197,1,3,2,1,1,0,0,139.1315,154.1696,1.8835,15.038,20,
128,1,2,2,107,1,317.3578,347.715,225.2985,1,2,3,2,0,1,0,347.715,NaN,100000,999,0,
128,1,2,2,108,1,79.1667,256.0186,227.7221,3,2,1,1,0,0,1,79.1667,75.9041,1.2751,-3.2627,30,
128,1,2,2,109,1,165.6614,49.3524,348.0148,1,3,2,1,1,0,0,165.6614,172.3005,0.83337,6.6391,30,
128,1,2,2,110,0,76.8968,319.3234,17.0998,0,0,0,2,0,0,0,319.3234,197.087,2.0585,-122.2363,0,
128,1,2,2,111,1,349.1405,287.5372,16.8308,3,1,2,1,0,1,0,349.1405,NaN,100000,999,0,
128,1,2,2,112,1,167.8456,109.3752,136.7429,3,2,1,1,0,0,1,167.8456,160.4495,1.0585,-7.396,30,
128,1,2,2,113,1,17.3376,75.7067,45.3407,2,1,3,2,1,0,0,75.7067,130.0956,1.6501,54.3889,0,
128,1,2,2,114,0,346.2021,48.4245,319.1963,0,0,0,2,0,0,0,48.4245,59.5023,0.77509,11.0777,30,
128,1,2,2,115,0,316.9479,48.8765,285.8968,0,0,0,1,0,0,0,316.9479,333.6257,1.8335,16.6778,20,
128,1,2,2,116,0,169.6136,317.8213,17.1573,0,0,0,2,0,0,0,317.8213,331.8526,1.4751,14.0313,20,
128,1,2,2,117,1,79.9629,257.2792,17.1302,3,1,2,3,1,0,0,17.1302,30.7937,1.3085,13.6635,20,
128,1,2,2,118,0,348.4165,318.0428,46.0983,0,0,0,1,0,0,0,348.4165,353.6986,1.2918,5.2821,30,
128,1,2,2,119,0,169.7606,319.8793,345.1546,0,0,0,1,0,0,0,169.7606,164.5329,1.0667,-5.2277,30,
128,1,2,2,120,0,196.2163,77.8571,319.9086,0,0,0,2,0,0,0,77.8571,101.1892,1.1001,23.3321,10,
128,1,3,1,121,0,315.19,49.7712,258.7119,0,0,0,2,0,0,0,49.7712,59.1244,1.1416,9.3532,30,
128,1,3,1,122,0,256.3059,75.474,107.2548,0,0,0,1,0,0,0,256.3059,211.1678,1.3501,-45.1381,0,
128,1,3,1,123,1,46.3872,285.0305,346.8736,2,1,3,2,1,0,0,285.0305,280.9167,1.9418,-4.1138,30,
128,1,3,1,124,0,105.9184,319.3083,75.1632,0,0,0,1,0,0,0,105.9184,114.3732,1.9169,8.4548,30,
128,1,3,1,125,1,106.5588,195.2766,18.769,3,2,1,3,1,0,0,18.769,38.7545,1.5333,19.9856,20,
128,1,3,1,126,1,139.8817,17.9662,316.522,2,3,1,1,0,0,1,139.8817,161.913,1.4001,22.0313,10,
128,1,3,1,127,1,108.4447,349.7301,229.3677,3,1,2,3,1,0,0,229.3677,230.4497,1.3251,1.082,40,
128,1,3,1,128,1,319.9646,15.8124,75.5678,1,2,3,1,1,0,0,319.9646,303.8495,1.1168,-16.1151,20,
128,1,3,1,129,0,317.5047,196.66,135.8694,0,0,0,1,0,0,0,317.5047,312.7986,1.225,-4.7061,30,
128,1,3,1,130,0,287.6892,169.3546,108.6142,0,0,0,1,0,0,0,287.6892,310.4059,1.4417,22.7167,10,
128,1,3,1,131,1,347.3686,289.756,46.2448,2,1,3,2,1,0,0,289.756,288.1219,2.0918,-1.6341,40,
128,1,3,1,132,1,167.2609,19.246,46.9522,2,1,3,2,1,0,0,19.246,46.2916,0.95838,27.0456,10,
128,1,3,1,133,1,197.6056,138.8715,165.6013,1,2,3,1,1,0,0,197.6056,198.4981,1.6502,0.89252,40,
128,1,3,1,134,1,167.5071,256.385,287.6698,1,2,3,2,0,1,0,256.385,252.4257,1.6836,-3.9593,30,
128,1,3,1,135,1,75.2679,196.8753,288.875,1,2,3,3,0,0,1,288.875,297.9858,1.1251,9.1109,30,
128,1,3,1,136,0,197.5604,348.6066,259.6442,0,0,0,1,0,0,0,197.5604,194.6585,1.2502,-2.9019,40,
128,1,3,1,137,0,168.4379,109.9343,348.8497,0,0,0,3,0,0,0,348.8497,5.6277,1.4502,16.778,20,
128,1,3,1,138,1,198.6208,258.0684,348.9148,2,3,1,2,1,0,0,258.0684,256.5533,1.6085,-1.5151,40,
128,1,3,1,139,1,345.3642,288.7561,229.1559,1,2,3,1,1,0,0,345.3642,348.8115,2.1252,3.4473,30,
128,1,3,1,140,1,229.1626,289.9769,348.2488,1,2,3,2,0,1,0,289.9769,272.3159,2.1168,-17.661,20,
128,1,3,1,141,0,196.0322,256.693,137.8706,0,0,0,1,0,0,0,196.0322,206.7842,1.0001,10.7521,30,
128,1,3,1,142,0,137.2949,199.3049,318.3042,0,0,0,2,0,0,0,199.3049,208.8752,1.1501,9.5703,30,
128,1,3,1,143,0,319.5075,166.5917,77.9854,0,0,0,1,0,0,0,319.5075,331.8357,1.4252,12.3282,20,
128,1,3,1,144,1,198.7463,49.2093,255.8344,3,2,1,1,0,0,1,198.7463,189.5524,0.85011,-9.1939,30,
128,1,3,1,145,1,47.6562,169.7795,195.3334,1,2,3,1,1,0,0,47.6562,73.2747,1.2002,25.6185,10,
128,1,3,1,146,0,285.7627,255.7778,345.4478,0,0,0,2,0,0,0,255.7778,237.9238,1.0418,-17.8539,20,
128,1,3,1,147,1,346.1715,287.3235,18.0969,3,2,1,3,1,0,0,18.0969,185.2642,1.5001,167.1673,0,
128,1,3,1,148,1,286.6012,47.4647,76.1083,1,2,3,2,0,1,0,47.4647,62.5362,0.92509,15.0716,20,
128,1,3,1,149,0,169.9519,135.1685,257.1213,0,0,0,1,0,0,0,169.9519,172.848,0.93343,2.8961,40,
128,1,3,1,150,1,135.5186,76.8876,286.3143,2,3,1,2,1,0,0,76.8876,284.6454,1.4835,-152.2421,0,
128,1,3,1,151,1,136.9241,15.8132,228.9838,2,3,1,1,0,0,1,136.9241,144.5915,1.3584,7.6674,30,
128,1,3,1,152,1,256.3422,16.2905,47.405,1,3,2,1,1,0,0,256.3422,221.3686,2.0252,-34.9736,0,
128,1,3,1,153,1,46.019,79.9667,135.4681,3,1,2,3,1,0,0,135.4681,142.0583,1.4918,6.5902,30,
128,1,3,1,154,1,139.2935,49.6024,78.7542,2,3,1,2,1,0,0,49.6024,45.2825,1.9085,-4.3199,30,
128,1,3,1,155,0,287.1087,317.0566,79.7957,0,0,0,2,0,0,0,317.0566,321.9231,1.2501,4.8666,30,
128,1,3,1,156,0,108.3266,79.8213,348.3558,0,0,0,3,0,0,0,348.3558,329.5568,1.4668,-18.799,20,
128,1,3,1,157,1,75.3655,287.9028,346.4351,2,1,3,2,1,0,0,287.9028,311.3661,1.1501,23.4633,10,
128,1,3,1,158,0,198.7184,106.9255,16.2575,0,0,0,3,0,0,0,16.2575,19.4801,1.3585,3.2226,30,
128,1,3,1,159,1,19.4394,316.2826,169.834,3,1,2,2,0,0,1,316.2826,346.8979,1.3001,30.6153,0,
128,1,3,1,160,1,198.7854,49.4316,347.3611,1,3,2,1,1,0,0,198.7854,185.1269,2.0169,-13.6585,20,
128,1,3,1,161,1,256.8834,287.5216,198.8175,3,2,1,3,1,0,0,198.8175,173.5341,1.7419,-25.2834,10,
128,1,3,1,162,1,15.4179,197.5633,289.1643,2,1,3,2,1,0,0,197.5633,210.942,1.6502,13.3787,20,
128,1,3,1,163,0,225.9814,285.6068,317.7185,0,0,0,3,0,0,0,317.7185,170.5936,1.4752,-147.1249,0,
128,1,3,1,164,1,226.822,15.8574,348.9768,2,1,3,2,1,0,0,15.8574,14.7977,1.4252,-1.0597,40,
128,1,3,1,165,0,108.4765,49.8046,227.7316,0,0,0,2,0,0,0,49.8046,59.6604,1.2335,9.8558,30,
128,1,3,1,166,1,139.2915,349.5471,169.8083,2,1,3,2,1,0,0,349.5471,348.2892,0.91682,-1.2579,40,
128,1,3,1,167,0,317.665,166.6339,78.011,0,0,0,3,0,0,0,78.011,61.1141,1.7084,-16.8969,20,
128,1,3,1,168,1,45.8568,286.6499,19.8324,3,1,2,1,0,1,0,45.8568,112.6386,1.1168,66.7818,0,
128,1,3,1,169,1,106.7704,226.3312,346.4575,1,2,3,1,1,0,0,106.7704,83.2099,1.2168,-23.5606,10,
128,1,3,1,170,0,49.4181,287.1224,18.0363,0,0,0,1,0,0,0,49.4181,90.1548,1.1334,40.7367,0,
128,1,3,1,171,1,17.7364,197.7674,108.1529,2,3,1,2,1,0,0,197.7674,198.3296,2.3169,0.56218,40,
128,1,3,1,172,1,345.4081,166.3724,229.3376,1,3,2,1,1,0,0,345.4081,169.5652,1.4919,-175.8429,0,
128,1,3,1,173,0,198.8857,346.9197,288.5578,0,0,0,2,0,0,0,346.9197,0.68327,1.6836,13.7635,20,
128,1,3,1,174,1,285.827,225.908,348.4572,3,2,1,3,1,0,0,348.4572,171.5832,1.2417,-176.874,0,
128,1,3,1,175,1,165.0106,319.7555,18.8315,1,3,2,1,1,0,0,165.0106,175.7108,0.82513,10.7001,30,
128,1,3,1,176,1,45.903,107.8665,75.8178,2,1,3,3,0,0,1,75.8178,49.1214,1.2418,-26.6964,10,
128,1,3,1,177,1,46.1465,285.9111,225.8318,2,3,1,2,1,0,0,285.9111,308.5366,1.1085,22.6254,10,
128,1,3,1,178,0,108.3036,169.7062,19.8785,0,0,0,2,0,0,0,169.7062,177.6273,1.2584,7.9211,30,
128,1,3,1,179,0,259.2268,109.3944,138.7309,0,0,0,2,0,0,0,109.3944,140.3539,2.1252,30.9596,0,
128,1,3,1,180,1,17.2394,78.5482,169.7217,2,1,3,3,0,0,1,169.7217,148.0885,1.3585,-21.6331,10,
128,1,4,1,181,0,228.2734,195.1307,18.9289,0,0,0,3,0,0,0,18.9289,25.6005,1.4168,6.6716,30,
128,1,4,1,182,0,109.9695,258.0224,229.7245,0,0,0,2,0,0,0,258.0224,239.6328,2.4919,-18.3896,20,
128,1,4,1,183,1,285.552,166.0832,199.0551,1,3,2,3,0,1,0,199.0551,205.3306,1.2334,6.2755,30,
128,1,4,1,184,1,108.221,255.3397,226.0396,1,3,2,2,0,0,1,255.3397,205.7803,1.4334,-49.5594,0,
128,1,4,1,185,1,319.6343,15.0415,79.1231,3,2,1,3,1,0,0,79.1231,57.7277,1.425,-21.3955,10,
128,1,4,1,186,0,289.6135,166.6016,349.2877,0,0,0,1,0,0,0,289.6135,253.9444,1.6085,-35.6691,0,
128,1,4,1,187,0,135.0642,315.9331,77.4262,0,0,0,2,0,0,0,315.9331,185.4467,1.5084,-130.4864,0,
128,1,4,1,188,1,137.8393,227.1325,45.3812,2,1,3,2,1,0,0,227.1325,341.3058,0.86675,114.1733,0,
128,1,4,1,189,0,169.7982,15.4454,288.9887,0,0,0,1,0,0,0,169.7982,180,1.2751,10.2018,30,
128,1,4,1,190,0,137.5494,76.9126,259.5274,0,0,0,3,0,0,0,259.5274,220.529,1.2252,-38.9984,0,
128,1,4,1,191,0,345.9222,75.2283,289.4252,0,0,0,3,0,0,0,289.4252,280.254,1.5169,-9.1712,30,
128,1,4,1,192,1,48.1135,105.3177,286.8675,2,3,1,2,1,0,0,105.3177,111.8759,0.73337,6.5582,30,
128,1,4,1,193,1,76.7084,347.7434,17.3027,1,2,3,1,1,0,0,76.7084,49.9207,1.4251,-26.7877,10,
128,1,4,1,194,1,257.1951,105.7453,195.1414,2,1,3,2,1,0,0,105.7453,159.4883,1.2335,53.743,0,
128,1,4,1,195,0,317.404,105.3326,79.4889,0,0,0,2,0,0,0,105.3326,118.9013,1.0335,13.5687,20,
128,1,4,1,196,0,76.7007,169.5946,107.2813,0,0,0,3,0,0,0,107.2813,113.6303,1.2501,6.3489,30,
128,1,4,1,197,0,347.9954,168.0078,108.2471,0,0,0,3,0,0,0,108.2471,115.0673,1.3085,6.8202,30,
128,1,4,1,198,0,136.8788,169.3173,286.4599,0,0,0,1,0,0,0,136.8788,144.2455,0.85847,7.3667,30,
128,1,4,1,199,1,196.4215,17.1766,229.5188,1,3,2,1,1,0,0,196.4215,198.818,0.96677,2.3965,40,
128,1,4,1,200,1,287.6707,136.834,196.8197,2,1,3,1,0,1,0,287.6707,295.0179,1.7085,7.3472,30,
128,1,4,1,201,1,229.9196,49.8989,16.2508,2,3,1,2,1,0,0,49.8989,41.2175,1.2918,-8.6814,30,
128,1,4,1,202,0,195.0178,169.0762,228.1921,0,0,0,2,0,0,0,169.0762,58.6346,0.95849,-110.4417,0,
128,1,4,1,203,0,257.3316,289.7577,49.825,0,0,0,2,0,0,0,289.7577,279.0848,1.3751,-10.6729,30,
128,1,4,1,204,0,259.0554,288.5523,139.8512,0,0,0,3,0,0,0,139.8512,127.7305,1.125,-12.1208,20,
128,1,4,1,205,1,286.2257,165.3206,76.3157,1,2,3,2,0,1,0,165.3206,210.1205,1.3751,44.7999,0,
128,1,4,1,206,1,315.0382,228.0546,17.0404,3,2,1,1,0,0,1,315.0382,286.2794,1.4169,-28.7587,10,
128,1,4,1,207,1,108.5521,168.4433,16.6047,1,2,3,1,1,0,0,108.5521,167.005,0.97515,58.4529,0,
128,1,4,1,208,1,75.8955,138.1723,319.8148,3,2,1,1,0,0,1,75.8955,109.1349,1.0251,33.2394,0,
128,1,4,1,209,1,169.5658,108.4126,319.7337,1,2,3,1,1,0,0,169.5658,160.9908,0.80833,-8.5749,30,
128,1,4,1,210,0,315.4142,19.752,75.0819,0,0,0,3,0,0,0,75.0819,57.289,1.2168,-17.7929,20,
128,1,4,1,211,1,317.3943,106.5406,48.7222,2,3,1,3,0,1,0,48.7222,67.4507,1.0001,18.7285,20,
128,1,4,1,212,1,286.3409,257.7512,45.9026,3,2,1,1,0,0,1,286.3409,288.04,1.4085,1.6991,40,
128,1,4,1,213,1,77.0324,49.759,139.5599,1,3,2,1,1,0,0,77.0324,78.4066,1.3085,1.3742,40,
128,1,4,1,214,0,318.0144,166.8875,138.3247,0,0,0,1,0,0,0,318.0144,331.9073,1.4251,13.893,20,
128,1,4,1,215,1,198.4041,109.616,45.7642,2,3,1,3,0,1,0,45.7642,28.9798,1.1585,-16.7844,20,
128,1,4,1,216,1,45.5504,196.3961,258.8382,1,2,3,1,1,0,0,45.5504,53.4903,1.6252,7.9398,30,
128,1,4,1,217,1,226.2324,48.3037,346.647,2,3,1,2,1,0,0,48.3037,52.2804,0.88341,3.9768,30,
128,1,4,1,218,0,49.0048,137.7749,107.0944,0,0,0,2,0,0,0,137.7749,162.1512,1.7336,24.3763,10,
128,1,4,1,219,0,167.4934,18.693,255.0638,0,0,0,1,0,0,0,167.4934,177.7295,0.62511,10.2361,30,
128,1,4,1,220,0,288.6709,195.521,228.9629,0,0,0,2,0,0,0,195.521,212.2469,1.4001,16.7258,20,
128,1,4,1,221,0,165.2439,196.5692,108.2082,0,0,0,2,0,0,0,196.5692,175.5265,0.98339,-21.0426,10,
128,1,4,1,222,0,48.3979,197.8389,288.2589,0,0,0,3,0,0,0,288.2589,297.5698,1.3502,9.3109,30,
128,1,4,1,223,1,109.8933,45.5568,136.9804,1,3,2,1,1,0,0,109.8933,107.0878,1.3834,-2.8055,40,
128,1,4,1,224,1,78.9946,289.6512,345.0236,1,3,2,1,1,0,0,78.9946,94.2198,1.1335,15.2252,20,
128,1,4,1,225,1,165.1751,197.0274,76.2483,3,1,2,3,1,0,0,76.2483,61.4689,1.5168,-14.7795,20,
128,1,4,1,226,0,138.6715,347.4974,169.7165,0,0,0,3,0,0,0,169.7165,173.1598,1.5502,3.4433,30,
128,1,4,1,227,1,167.6721,77.1758,345.7885,2,3,1,2,1,0,0,77.1758,99.1479,0.92514,21.9721,10,
128,1,4,1,228,0,79.4084,198.6705,227.0322,0,0,0,2,0,0,0,198.6705,190.3654,1.15,-8.3051,30,
128,1,4,1,229,1,256.2999,78.9343,137.5579,2,3,1,1,0,0,1,256.2999,226.74,1.1334,-29.5599,10,
128,1,4,1,230,1,258.2465,78.8143,167.8784,1,2,3,1,1,0,0,258.2465,242.9402,1.2085,-15.3063,20,
128,1,4,1,231,0,315.1631,197.1487,45.1863,0,0,0,3,0,0,0,45.1863,36.0098,1.9169,-9.1765,30,
128,1,4,1,232,0,166.0708,105.0193,259.4029,0,0,0,2,0,0,0,105.0193,67.7851,0.98341,-37.2342,0,
128,1,4,1,233,0,285.4293,17.6559,49.4428,0,0,0,1,0,0,0,285.4293,294.9685,1.3751,9.5392,30,
128,1,4,1,234,1,137.0614,166.811,48.907,3,2,1,3,1,0,0,48.907,43.948,1.0001,-4.959,30,
128,1,4,1,235,0,258.397,19.884,195.6273,0,0,0,3,0,0,0,195.6273,225.78,1.2669,30.1527,0,
128,1,4,1,236,0,167.6627,229.6285,109.4954,0,0,0,3,0,0,0,109.4954,116.4582,2.0585,6.9627,30,
128,1,4,1,237,1,289.3028,79.6955,258.401,1,3,2,3,0,1,0,258.401,274.4888,1.5418,16.0878,20,
128,1,4,1,238,1,167.6572,228.169,345.0705,2,1,3,2,1,0,0,228.169,237.4468,3.2419,9.2778,30,
128,1,4,1,239,1,78.7617,259.4745,169.2092,1,2,3,1,1,0,0,78.7617,47.9391,1.9168,-30.8226,0,
128,1,4,1,240,1,138.6643,105.5838,18.7302,2,1,3,1,0,1,0,138.6643,168.4842,1.025,29.82,10,
128,1,5,1,241,1,167.0559,316.1824,255.9753,2,1,3,2,1,0,0,316.1824,310.4202,1.6085,-5.7622,30,
128,1,5,1,242,1,225.5146,49.9844,196.7948,1,2,3,1,1,0,0,225.5146,204.8237,0.90009,-20.6909,20,
128,1,5,1,243,1,77.9323,198.8902,258.6385,2,1,3,2,1,0,0,198.8902,207.7368,1.0251,8.8466,30,
128,1,5,1,244,1,228.7567,317.6118,347.4522,1,2,3,2,0,1,0,317.6118,2.611,1.6419,44.9993,0,
128,1,5,1,245,1,16.2011,225.3515,286.5002,3,1,2,3,1,0,0,286.5002,297.1792,1.0334,10.679,30,
128,1,5,1,246,0,166.4226,49.1528,229.0918,0,0,0,1,0,0,0,166.4226,175.3061,0.66673,8.8836,30,
128,1,5,1,247,1,48.2004,108.9378,136.35,3,2,1,3,1,0,0,136.35,128.2305,1.2668,-8.1195,30,
128,1,5,1,248,1,135.4472,258.6564,229.5193,1,2,3,3,0,0,1,229.5193,222.8198,1.4168,-6.6995,30,
128,1,5,1,249,1,139.9175,46.2417,348.0318,3,1,2,2,0,0,1,46.2417,39.1137,1.1084,-7.128,30,
128,1,5,1,250,1,287.9163,196.3027,345.4241,2,1,3,1,0,1,0,287.9163,293.3523,1.5001,5.436,30,
128,1,5,1,251,0,199.6498,106.4098,345.8444,0,0,0,1,0,0,0,199.6498,199.9752,1.0919,0.3254,40,
128,1,5,1,252,0,169.1344,316.5048,346.9194,0,0,0,3,0,0,0,346.9194,327.1495,1.0251,-19.7699,20,
128,1,5,1,253,0,195.6162,138.6794,225.7831,0,0,0,2,0,0,0,138.6794,90.9525,1.3002,-47.7269,0,
128,1,5,1,254,1,105.6737,316.6189,199.7527,3,2,1,1,0,0,1,105.6737,155.6692,0.90845,49.9954,0,
128,1,5,1,255,0,319.0859,286.8877,49.863,0,0,0,1,0,0,0,319.0859,320.124,1.225,1.0381,40,
128,1,5,1,256,1,169.9745,197.4529,47.5173,3,2,1,1,0,0,1,169.9745,169.2363,1.0167,-0.73821,40,
128,1,5,1,257,1,108.6293,256.6972,346.3634,3,1,2,3,1,0,0,346.3634,351.7089,1.6335,5.3455,30,
128,1,5,1,258,1,315.1454,285.681,18.4728,1,3,2,2,0,0,1,285.681,294.1228,2.2086,8.4419,30,
128,1,5,1,259,0,345.3735,195.9123,165.1584,0,0,0,2,0,0,0,195.9123,186.5067,1.2085,-9.4056,30,
128,1,5,1,260,1,48.6624,345.8147,229.6054,1,3,2,3,0,1,0,229.6054,222.4165,1.2251,-7.1889,30,
128,1,5,1,261,1,75.0066,49.9063,17.851,1,3,2,1,1,0,0,75.0066,60.7857,1.1584,-14.2208,20,
128,1,5,1,262,1,108.7804,256.4412,78.0309,1,3,2,1,1,0,0,108.7804,110.212,1.0584,1.4317,40,
128,1,5,1,263,0,136.1479,165.0346,318.8332,0,0,0,2,0,0,0,165.0346,190.1252,1.1251,25.0906,10,
128,1,5,1,264,1,197.5948,19.1099,348.1851,3,1,2,2,0,0,1,19.1099,44.1625,1.2834,25.0527,10,
128,1,5,1,265,0,107.0495,196.8559,226.1343,0,0,0,1,0,0,0,107.0495,194.6347,1.0668,87.5852,0,
128,1,5,1,266,0,168.9651,139.0778,48.7606,0,0,0,3,0,0,0,48.7606,57.8534,1.2501,9.0929,30,
128,1,5,1,267,0,317.7818,139.8454,168.4456,0,0,0,1,0,0,0,317.7818,286.7176,1.9001,-31.0643,0,
128,1,5,1,268,0,345.0331,197.9865,288.2959,0,0,0,2,0,0,0,197.9865,229.498,1.3751,31.5115,0,
128,1,5,1,269,1,168.9406,229.348,288.9377,2,3,1,2,1,0,0,229.348,220.9805,1.3251,-8.3675,30,
128,1,5,1,270,0,165.9414,106.621,288.5802,0,0,0,1,0,0,0,165.9414,170.173,0.7251,4.2317,30,
128,1,5,1,271,1,168.5983,256.5138,47.2951,3,1,2,3,1,0,0,47.2951,64.0912,1.275,16.7961,20,
128,1,5,1,272,1,17.1214,319.5277,287.0866,3,1,2,3,1,0,0,287.0866,288.9064,1.0751,1.8198,40,
128,1,5,1,273,1,285.9294,16.4572,317.3083,2,3,1,2,1,0,0,16.4572,198.7226,1.3668,-177.7347,0,
128,1,5,1,274,1,135.8698,195.5877,105.8702,3,2,1,3,1,0,0,105.8702,86.4525,1.3251,-19.4177,20,
128,1,5,1,275,0,107.3868,259.4494,195.3254,0,0,0,1,0,0,0,107.3868,99.4612,1.0668,-7.9256,30,
128,1,5,1,276,0,136.9238,347.8132,168.1692,0,0,0,3,0,0,0,168.1692,162.2307,1.4168,-5.9385,30,
128,1,5,1,277,0,227.7422,136.0392,108.9229,0,0,0,1,0,0,0,227.7422,206.9385,0.97501,-20.8037,20,
128,1,5,1,278,1,138.9978,348.9808,289.7704,3,1,2,3,1,0,0,289.7704,296.8645,0.8918,7.0941,30,
128,1,5,1,279,1,136.8617,167.0285,17.1941,1,3,2,1,1,0,0,136.8617,164.5059,0.83354,27.6442,10,
128,1,5,1,280,1,318.5183,259.5948,138.3004,1,3,2,1,1,0,0,318.5183,333.2009,1.2751,14.6827,20,
128,1,5,1,281,0,225.1476,257.3617,288.3922,0,0,0,1,0,0,0,225.1476,219.8882,0.91677,-5.2594,30,
128,1,5,1,282,1,19.5042,105.6908,48.9704,3,1,2,3,1,0,0,48.9704,42.5575,1.05,-6.4129,30,
128,1,5,1,283,1,45.9366,77.7282,136.2756,3,1,2,1,0,1,0,45.9366,22.9429,1.3252,-22.9937,10,
128,1,5,1,284,1,169.4306,45.747,257.1734,3,1,2,3,1,0,0,257.1734,256.5566,1.1419,-0.61674,40,
128,1,5,1,285,1,287.5569,16.0754,106.7305,1,3,2,3,0,1,0,106.7305,88.3154,1.1502,-18.4151,20,
128,1,5,1,286,0,287.3987,75.9933,316.1951,0,0,0,3,0,0,0,316.1951,322.0785,0.97506,5.8835,30,
128,1,5,1,287,1,259.6331,285.4745,76.8771,2,3,1,3,0,1,0,76.8771,67.2159,1.4752,-9.6612,30,
128,1,5,1,288,0,197.3872,316.5277,47.5817,0,0,0,3,0,0,0,47.5817,47.9412,0.88342,0.35953,40,
128,1,5,1,289,0,319.7979,108.851,79.3751,0,0,0,1,0,0,0,319.7979,292.828,1.1834,-26.97,10,
128,1,5,1,290,0,16.3184,229.58,348.0752,0,0,0,2,0,0,0,229.58,230.7882,0.96677,1.2082,40,
128,1,5,1,291,1,347.7596,17.0191,198.7506,3,1,2,3,1,0,0,198.7506,214.7509,1.4169,16.0003,20,
128,1,5,1,292,1,229.2868,75.9901,315.778,2,3,1,2,1,0,0,75.9901,65.6889,1.7418,-10.3012,30,
128,1,5,1,293,1,76.7418,17.4316,258.3976,1,3,2,1,1,0,0,76.7418,59.9354,1.2084,-16.8064,20,
128,1,5,1,294,0,139.9652,345.4822,196.5657,0,0,0,2,0,0,0,345.4822,23.954,1.5501,38.4719,0,
128,1,5,1,295,0,258.5304,135.1951,198.0815,0,0,0,3,0,0,0,198.0815,210.1586,1.0751,12.0771,20,
128,1,5,1,296,0,79.9196,45.2887,106.9827,0,0,0,1,0,0,0,79.9196,71.5639,1.1335,-8.3557,30,
128,1,5,1,297,1,139.4131,317.1872,79.1748,1,2,3,1,1,0,0,139.4131,147.9032,0.80014,8.49,30,
128,1,5,1,298,1,169.0204,227.8133,108.7544,2,1,3,3,0,0,1,108.7544,113.4991,1.9085,4.7448,30,
128,1,5,1,299,0,15.6194,315.9312,168.2325,0,0,0,1,0,0,0,15.6194,26.4354,0.92505,10.816,30,
128,1,5,1,300,1,108.8763,47.9592,16.8809,2,3,1,2,1,0,0,47.9592,65.4964,0.65845,17.5372,20,
128,1,6,1,301,1,46.9234,135.2004,227.9147,2,3,1,2,1,0,0,135.2004,186.8871,1.6336,51.6867,0,
128,1,6,1,302,1,195.7893,347.5433,258.0165,3,1,2,3,1,0,0,258.0165,237.8196,1.2585,-20.1969,20,
128,1,6,1,303,0,16.8971,197.9642,135.3425,0,0,0,2,0,0,0,197.9642,197.1193,0.99181,-0.84494,40,
128,1,6,1,304,1,347.1749,287.7893,258.1939,3,2,1,3,1,0,0,258.1939,248.1803,0.87515,-10.0136,30,
128,1,6,1,305,0,16.4771,196.8306,76.7452,0,0,0,3,0,0,0,76.7452,50.5926,0.83342,-26.1526,10,
128,1,6,1,306,1,317.1352,167.8886,349.4976,2,1,3,2,1,0,0,167.8886,161.1703,0.85831,-6.7183,30,
128,1,6,1,307,0,349.4673,318.2654,15.2014,0,0,0,2,0,0,0,318.2654,337.3972,1.1334,19.1317,20,
128,1,6,1,308,1,348.6462,168.243,137.3733,3,2,1,3,1,0,0,137.3733,159.2114,1.1251,21.8381,10,
128,1,6,1,309,1,136.4477,45.0925,348.5075,1,3,2,1,1,0,0,136.4477,155.109,0.84176,18.6613,20,
128,1,6,1,310,0,315.7111,256.8779,168.9678,0,0,0,2,0,0,0,256.8779,288.6359,1.2751,31.758,0,
128,1,6,1,311,1,169.758,196.7334,286.4866,3,2,1,3,1,0,0,286.4866,292.1439,0.73336,5.6573,30,
128,1,6,1,312,0,259.5246,346.4085,138.0694,0,0,0,3,0,0,0,138.0694,129.7322,1.0418,-8.3372,30,
128,1,6,1,313,0,225.0449,48.5914,257.2471,0,0,0,2,0,0,0,48.5914,60.2741,0.66671,11.6827,30,
128,1,6,1,314,0,109.9422,346.2555,196.5774,0,0,0,1,0,0,0,109.9422,107.2186,1.3585,-2.7235,40,
128,1,6,1,315,1,46.3042,227.4654,109.2792,2,3,1,2,1,0,0,227.4654,220.4323,1.2168,-7.0331,30,
128,1,6,1,316,0,257.3016,227.5784,76.36,0,0,0,3,0,0,0,76.36,63.148,1.3002,-13.212,20,
128,1,6,1,317,0,257.7944,16.1293,135.5226,0,0,0,2,0,0,0,16.1293,358.1207,1.1251,-18.0085,20,
128,1,6,1,318,1,19.299,47.9853,288.2738,3,2,1,1,0,0,1,19.299,33.1682,1.7085,13.8692,20,
128,1,6,1,319,1,195.14,255.3342,79.6353,2,1,3,3,0,0,1,79.6353,58.6938,1.2335,-20.9415,20,
128,1,6,1,320,1,15.1824,255.3184,106.6144,2,1,3,2,1,0,0,255.3184,276.7535,1.4834,21.4351,10,
128,1,6,1,321,1,107.9897,225.1151,19.4971,3,2,1,3,1,0,0,19.4971,30.8351,1.6168,11.3379,30,
128,1,6,1,322,1,197.2525,47.8892,285.3742,1,2,3,2,0,1,0,47.8892,56.4231,1.0001,8.5338,30,
128,1,6,1,323,1,17.2564,316.2498,139.7772,1,3,2,1,1,0,0,17.2564,43.7393,1.1751,26.4829,10,
128,1,6,1,324,0,17.2228,288.1376,347.6732,0,0,0,1,0,0,0,17.2228,24.3208,1.4335,7.0979,30,
128,1,6,1,325,1,317.5363,165.5686,257.4522,1,2,3,1,1,0,0,317.5363,329.037,1.2334,11.5006,30,
128,1,6,1,326,0,47.5541,317.8229,199.9686,0,0,0,1,0,0,0,47.5541,36.6717,1.2084,-10.8824,30,
128,1,6,1,327,0,106.6799,75.7242,346.2244,0,0,0,3,0,0,0,346.2244,344.8797,1.0751,-1.3447,40,
128,1,6,1,328,1,169.2888,79.31,346.5665,3,2,1,3,1,0,0,346.5665,335.301,1.1168,-11.2655,30,
128,1,6,1,329,1,319.3634,106.4291,198.2842,3,1,2,3,1,0,0,198.2842,221.6523,1.1418,23.3681,10,
128,1,6,1,330,0,349.5954,197.0535,78.6618,0,0,0,2,0,0,0,197.0535,202.7077,1.4585,5.6542,30,
128,1,6,1,331,1,15.0076,347.81,287.7324,2,3,1,3,0,1,0,287.7324,298.0376,0.62506,10.3052,30,
128,1,6,1,332,1,285.9061,227.1312,255.4908,3,2,1,3,1,0,0,255.4908,284.5434,1.0001,29.0526,10,
128,1,6,1,333,0,345.6878,197.1204,228.8228,0,0,0,2,0,0,0,197.1204,202.8881,1.2334,5.7677,30,
128,1,6,1,334,0,165.8893,259.9342,75.085,0,0,0,3,0,0,0,75.085,60.3722,1.1667,-14.7128,20,
128,1,6,1,335,1,18.1545,289.4599,318.367,2,1,3,2,1,0,0,289.4599,301.1395,1.2168,11.6796,30,
128,1,6,1,336,1,227.6908,319.5507,166.7535,2,3,1,2,1,0,0,319.5507,316.5577,1.6001,-2.993,40,
128,1,6,1,337,1,256.578,109.9701,229.9195,3,1,2,3,1,0,0,229.9195,29.7276,0.90003,159.8081,0,
128,1,6,1,338,1,258.626,319.1718,285.0945,1,2,3,1,1,0,0,258.626,223.7764,0.97514,-34.8497,0,
128,1,6,1,339,1,289.6574,136.8901,18.0884,3,2,1,2,0,1,0,136.8901,131.0353,1.1334,-5.8549,30,
128,1,6,1,340,1,107.9087,195.499,225.833,2,1,3,2,1,0,0,195.499,226.8007,1.0168,31.3017,0,
128,1,6,1,341,0,19.4256,46.0482,167.4018,0,0,0,3,0,0,0,167.4018,175.999,1.2751,8.5972,30,
128,1,6,1,342,1,78.6958,106.2681,18.5963,3,1,2,2,0,0,1,106.2681,131.3242,1.2501,25.0561,10,
128,1,6,1,343,0,258.1371,347.3141,105.6472,0,0,0,3,0,0,0,105.6472,87.6769,1.1835,-17.9703,20,
128,1,6,1,344,0,229.993,137.5676,346.9392,0,0,0,3,0,0,0,346.9392,346.7248,0.94187,-0.21442,40,
128,1,6,1,345,1,199.8122,16.5687,48.9854,3,2,1,2,0,1,0,16.5687,28.5905,1.0918,12.0219,20,
128,1,6,1,346,1,49.5963,169.9447,79.663,3,1,2,3,1,0,0,79.663,48.5838,1.3252,-31.0792,0,
128,1,6,1,347,1,195.941,315.5034,346.4328,3,2,1,3,1,0,0,346.4328,350.1312,1.5502,3.6983,30,
128,1,6,1,348,0,106.7758,228.1557,19.3227,0,0,0,2,0,0,0,228.1557,241.9841,1.5751,13.8284,20,
128,1,6,1,349,1,16.1481,136.7947,46.8158,3,1,2,3,1,0,0,46.8158,47.3487,0.98348,0.53287,40,
128,1,6,1,350,0,346.4404,166.8831,225.7325,0,0,0,1,0,0,0,346.4404,335.5704,1.2,-10.87,30,
128,1,6,1,351,1,255.7971,226.3939,18.2247,3,1,2,3,1,0,0,18.2247,23.9574,1.2668,5.7327,30,
128,1,6,1,352,0,75.5483,347.8292,256.3717,0,0,0,3,0,0,0,256.3717,301.6792,1.0918,45.3075,0,
128,1,6,1,353,1,288.1388,77.2337,19.0555,1,2,3,2,0,1,0,77.2337,86.1273,0.92509,8.8936,30,
128,1,6,1,354,1,196.9487,15.7521,166.6685,2,1,3,3,0,0,1,166.6685,164.1017,1.1751,-2.5668,40,
128,1,6,1,355,1,106.9478,257.4507,79.4345,1,3,2,1,1,0,0,106.9478,177.8298,1.5835,70.8819,0,
128,1,6,1,356,0,319.31,345.6282,258.2279,0,0,0,1,0,0,0,319.31,157.607,0.9001,-161.703,0,
128,1,6,1,357,1,138.9567,288.2831,107.7184,1,3,2,3,0,1,0,107.7184,98.6807,1.6084,-9.0377,30,
128,1,6,1,358,1,315.156,289.1379,16.3213,2,3,1,3,0,1,0,16.3213,33.7553,1.3001,17.434,20,
128,1,6,1,359,1,258.0154,135.9201,225.4373,1,3,2,2,0,0,1,135.9201,67.2843,1.2335,-68.6358,0,
128,1,6,1,360,1,139.5235,198.8365,47.8133,3,1,2,3,1,0,0,47.8133,14.6849,1.0585,-33.1285,0,
128,1,7,2,361,0,137.7436,195.0777,75.4734,0,0,0,2,0,0,0,195.0777,212.6622,1.3335,17.5844,20,
128,1,7,2,362,1,256.7246,198.4634,348.583,2,3,1,2,1,0,0,198.4634,209.2333,1.0418,10.7699,30,
128,1,7,2,363,1,135.1638,79.2181,258.8515,3,2,1,2,0,1,0,79.2181,NaN,100000,999,0,
128,1,7,2,364,1,318.2542,229.9111,195.9692,2,1,3,2,1,0,0,229.9111,239.7005,1.2751,9.7895,30,
128,1,7,2,365,1,108.4551,288.2361,228.1172,1,2,3,1,1,0,0,108.4551,114.2859,0.98342,5.8308,30,
128,1,7,2,366,1,346.1287,288.3308,49.3567,3,1,2,3,1,0,0,49.3567,52.6619,0.58346,3.3052,30,
128,1,7,2,367,0,228.7525,46.6696,168.1642,0,0,0,2,0,0,0,46.6696,57.1678,0.70004,10.4982,30,
128,1,7,2,368,1,226.3755,139.1398,258.9639,1,2,3,1,1,0,0,226.3755,213.2951,1.1418,-13.0804,20,
128,1,7,2,369,0,79.0965,319.6324,17.5706,0,0,0,1,0,0,0,79.0965,113.1284,0.86668,34.0319,0,
128,1,7,2,370,0,319.6235,15.2778,76.9202,0,0,0,2,0,0,0,15.2778,201.3829,1.4168,-173.8948,0,
128,1,7,2,371,1,319.6585,285.5445,48.2585,2,3,1,2,1,0,0,285.5445,297.581,2.0252,12.0365,20,
128,1,7,2,372,1,106.2626,258.2717,15.3005,2,1,3,2,1,0,0,258.2717,277.4909,1.4086,19.2192,20,
128,1,7,2,373,1,49.0672,258.9382,345.6216,3,2,1,3,1,0,0,345.6216,334.105,0.90008,-11.5166,30,
128,1,7,2,374,1,166.1154,197.5488,18.9387,2,3,1,2,1,0,0,197.5488,200.1405,1.0167,2.5917,40,
128,1,7,2,375,1,135.6449,196.0742,226.4641,2,1,3,2,1,0,0,196.0742,191.8658,1.5585,-4.2084,30,
128,1,7,2,376,0,258.7972,46.9971,227.8371,0,0,0,3,0,0,0,227.8371,213.1859,1.1835,-14.6512,20,
128,1,7,2,377,1,19.3937,136.9647,106.2132,2,3,1,1,0,0,1,19.3937,18.2199,1.3752,-1.1738,40,
128,1,7,2,378,1,198.1299,16.6345,346.5555,1,3,2,1,1,0,0,198.1299,189.8615,0.84176,-8.2684,30,
128,1,7,2,379,0,255.9533,317.2465,78.8433,0,0,0,2,0,0,0,317.2465,237.6173,1.9918,-79.6292,0,
128,1,7,2,380,1,106.7368,288.8994,198.5417,2,1,3,2,1,0,0,288.8994,292.1209,1.1501,3.2214,30,
128,1,7,2,381,0,226.6913,289.8702,169.7739,0,0,0,3,0,0,0,169.7739,145.7965,2.0087,-23.9774,10,
128,1,7,2,382,1,75.0635,45.6611,226.9403,2,3,1,3,0,1,0,226.9403,NaN,100000,999,0,
128,1,7,2,383,0,195.7207,48.1759,349.0121,0,0,0,1,0,0,0,195.7207,186.5702,1.1584,-9.1505,30,
128,1,7,2,384,1,135.4763,286.2294,199.6733,3,1,2,1,0,1,0,135.4763,NaN,100000,999,0,
128,1,7,2,385,1,107.2227,346.6329,286.4365,3,2,1,1,0,0,1,107.2227,133.2266,1.7251,26.0038,10,
128,1,7,2,386,0,167.3073,257.9357,47.388,0,0,0,1,0,0,0,167.3073,171.7273,1.0834,4.42,30,
128,1,7,2,387,1,105.1816,45.943,347.8877,1,3,2,1,1,0,0,105.1816,91.8727,1.3668,-13.3089,20,
128,1,7,2,388,0,197.7527,139.9306,168.4489,0,0,0,2,0,0,0,139.9306,164.0529,1.0751,24.1224,10,
128,1,7,2,389,0,106.463,49.1621,137.8526,0,0,0,3,0,0,0,137.8526,156.371,1.3834,18.5183,20,
128,1,7,2,390,1,18.0356,289.7875,76.6533,2,1,3,2,1,0,0,289.7875,300.1539,1.3834,10.3664,30,
128,1,7,2,391,1,45.3576,315.0784,289.8684,3,2,1,3,1,0,0,289.8684,46.8995,1.0085,117.0311,0,
128,1,7,2,392,1,78.5901,105.9445,317.1697,3,1,2,2,0,0,1,105.9445,116.7871,1.0169,10.8426,30,
128,1,7,2,393,0,319.7139,18.3713,226.9283,0,0,0,2,0,0,0,18.3713,23.6489,1.3251,5.2776,30,
128,1,7,2,394,1,196.9913,225.6865,319.7638,2,3,1,1,0,0,1,196.9913,199.459,0.7001,2.4677,40,
128,1,7,2,395,1,75.4069,138.9374,255.872,1,2,3,3,0,0,1,255.872,266.7465,1.3501,10.8745,30,
128,1,7,2,396,1,347.3247,229.1204,79.3594,2,3,1,3,0,1,0,79.3594,NaN,100000,999,0,
128,1,7,2,397,1,199.4692,169.205,48.4164,1,2,3,1,1,0,0,199.4692,201.9403,1.2084,2.4711,40,
128,1,7,2,398,1,106.0224,15.3143,48.1119,3,2,1,3,1,0,0,48.1119,51.9831,1.1417,3.8712,30,
128,1,7,2,399,0,347.7221,289.2307,45.2035,0,0,0,2,0,0,0,289.2307,305.4084,1.1334,16.1777,20,
128,1,7,2,400,0,288.0459,259.8347,198.8666,0,0,0,3,0,0,0,198.8666,55.9912,1.8502,-142.8754,0,
128,1,7,2,401,1,138.5923,169.9766,75.4185,3,1,2,3,1,0,0,75.4185,58.8319,0.86674,-16.5866,20,
128,1,7,2,402,0,138.4918,47.2984,315.7883,0,0,0,2,0,0,0,47.2984,169.7534,1.3419,122.455,0,
128,1,7,2,403,1,318.6274,135.6952,168.1628,1,3,2,1,1,0,0,318.6274,309.8065,1.5835,-8.821,30,
128,1,7,2,404,1,198.2711,316.0916,345.5957,1,3,2,1,1,0,0,198.2711,206.5052,0.78348,8.2341,30,
128,1,7,2,405,0,19.5455,197.2517,168.7432,0,0,0,2,0,0,0,197.2517,214.803,1.3002,17.5513,20,
128,1,7,2,406,1,196.9978,48.2766,317.8342,2,3,1,3,0,1,0,317.8342,NaN,100000,999,0,
128,1,7,2,407,1,18.4428,258.0195,106.9348,2,3,1,1,0,0,1,18.4428,18.7325,1.6836,0.28973,40,
128,1,7,2,408,0,18.089,137.9711,318.3294,0,0,0,3,0,0,0,318.3294,334.04,1.0001,15.7106,20,
128,1,7,2,409,0,285.4329,319.6342,15.7424,0,0,0,3,0,0,0,15.7424,26.7273,1.0251,10.9849,30,
128,1,7,2,410,1,167.2618,137.6668,287.6333,3,2,1,3,1,0,0,287.6333,304.7362,1.0667,17.1029,20,
128,1,7,2,411,1,257.6176,76.6841,136.6619,2,1,3,1,0,1,0,257.6176,NaN,100000,999,0,
128,1,7,2,412,1,318.6127,255.6712,169.2655,2,1,3,2,1,0,0,255.6712,257.8725,1.4751,2.2013,40,
128,1,7,2,413,0,195.6399,167.3218,78.713,0,0,0,3,0,0,0,78.713,66.6469,1.1,-12.0661,20,
128,1,7,2,414,0,255.0215,348.2625,136.8484,0,0,0,3,0,0,0,136.8484,110.0954,0.93337,-26.7531,10,
128,1,7,2,415,1,169.2599,195.5886,108.2863,2,1,3,1,0,1,0,169.2599,NaN,100000,999,0,
128,1,7,2,416,0,108.0519,256.2399,137.5898,0,0,0,3,0,0,0,137.5898,133.9274,1.1417,-3.6624,30,
128,1,7,2,417,1,315.776,79.9704,137.2512,2,1,3,3,0,0,1,137.2512,120.5322,0.85832,-16.719,20,
128,1,7,2,418,0,109.5576,45.6649,285.2108,0,0,0,1,0,0,0,109.5576,93.7856,1.2084,-15.772,20,
128,1,7,2,419,1,285.9982,227.6508,348.1368,1,2,3,1,1,0,0,285.9982,294.276,1.3251,8.2778,30,
128,1,7,2,420,1,285.1161,195.8806,349.3046,1,2,3,3,0,0,1,349.3046,352,1.6334,2.6954,40,
128,1,8,2,421,0,139.1592,226.9724,75.4832,0,0,0,1,0,0,0,139.1592,168.0803,0.85015,28.921,10,
128,1,8,2,422,0,258.0006,19.9983,285.6459,0,0,0,3,0,0,0,285.6459,297.6492,0.60844,12.0034,20,
128,1,8,2,423,0,347.863,79.9688,136.8148,0,0,0,2,0,0,0,79.9688,59.3821,0.71678,-20.5867,20,
128,1,8,2,424,0,138.8927,289.0539,347.4898,0,0,0,1,0,0,0,138.8927,169.2043,0.86673,30.3116,0,
128,1,8,2,425,1,139.122,45.8653,229.3182,2,3,1,2,1,0,0,45.8653,59.0595,0.90839,13.1942,20,
128,1,8,2,426,1,138.0311,78.9619,49.1808,3,1,2,2,0,0,1,78.9619,125.1239,1.1251,46.162,0,
128,1,8,2,427,0,46.1867,195.6983,256.1037,0,0,0,1,0,0,0,46.1867,45.0727,0.97511,-1.114,40,
128,1,8,2,428,1,346.4768,289.5354,227.4644,2,1,3,2,1,0,0,289.5354,304.1323,1.6001,14.5969,20,
128,1,8,2,429,1,47.187,79.2999,15.0445,2,1,3,2,1,0,0,79.2999,87.0252,0.93343,7.7253,30,
128,1,8,2,430,1,79.2645,348.4328,109.7906,2,1,3,2,1,0,0,348.4328,345.1606,1.5085,-3.2722,30,
128,1,8,2,431,1,166.9384,345.2837,198.4479,1,3,2,1,1,0,0,166.9384,181.9177,0.48327,14.9794,20,
128,1,8,2,432,1,46.1005,196.179,169.0506,1,2,3,2,0,1,0,196.179,NaN,100000,999,0,
128,1,8,2,433,0,285.1488,259.3335,319.4721,0,0,0,1,0,0,0,285.1488,316.1574,1.5002,31.0087,0,
128,1,8,2,434,1,315.0558,256.1726,168.5349,1,3,2,1,1,0,0,315.0558,311.3194,0.97509,-3.7364,30,
128,1,8,2,435,0,138.3282,106.1507,49.0244,0,0,0,3,0,0,0,49.0244,45.2847,1.075,-3.7397,30,
128,1,8,2,436,0,167.1549,138.8245,349.9823,0,0,0,3,0,0,0,349.9823,342.5559,0.80013,-7.4264,30,
128,1,8,2,437,1,107.9765,77.5306,228.882,1,2,3,2,0,1,0,77.5306,NaN,100000,999,0,
128,1,8,2,438,1,165.7078,228.0405,49.6531,2,1,3,1,0,1,0,165.7078,NaN,100000,999,0,
128,1,8,2,439,1,348.1345,49.685,316.5997,3,1,2,3,1,0,0,316.5997,333.6633,0.95859,17.0637,20,
128,1,8,2,440,1,75.7592,348.6651,45.1985,1,3,2,2,0,0,1,348.6651,338.1294,1.4085,-10.5356,30,
128,1,8,2,441,0,166.6833,319.4168,46.6683,0,0,0,1,0,0,0,166.6833,325.6774,1.4417,158.9941,0,
128,1,8,2,442,0,78.6986,197.224,109.252,0,0,0,2,0,0,0,197.224,189.0303,0.95837,-8.1937,30,
128,1,8,2,443,1,227.4811,166.4383,105.9151,2,3,1,2,1,0,0,166.4383,178.3456,1.0002,11.9073,30,
128,1,8,2,444,0,226.7599,195.5008,288.965,0,0,0,3,0,0,0,288.965,314.1195,1.2752,25.1545,10,
128,1,8,2,445,1,228.4323,319.7786,106.5395,3,1,2,3,1,0,0,106.5395,108.1749,1.5253,1.6354,40,
128,1,8,2,446,1,79.7326,317.4622,348.7411,2,1,3,2,1,0,0,317.4622,309.936,1.2251,-7.5262,30,
128,1,8,2,447,0,45.9115,197.797,18.1324,0,0,0,2,0,0,0,197.797,186.274,0.94177,-11.523,30,
128,1,8,2,448,1,18.6621,168.1551,287.341,1,3,2,3,0,1,0,287.341,NaN,100000,999,0,
128,1,8,2,449,1,136.0884,285.0426,346.5031,3,1,2,3,1,0,0,346.5031,345.1253,0.98332,-1.3778,40,
128,1,8,2,450,1,315.1533,349.0435,225.2357,3,1,2,1,0,1,0,315.1533,NaN,100000,999,0,
128,1,8,2,451,1,138.6936,315.0693,168.3956,3,1,2,3,1,0,0,168.3956,183.8579,1.5168,15.4623,20,
128,1,8,2,452,1,46.0342,105.1868,78.3168,1,3,2,1,1,0,0,46.0342,49.0013,1.1751,2.9671,40,
128,1,8,2,453,1,165.0947,45.9217,15.1337,3,1,2,3,1,0,0,15.1337,16.4733,1.1169,1.3396,40,
128,1,8,2,454,1,348.5217,318.8731,289.1133,2,1,3,1,0,1,0,348.5217,NaN,100000,999,0,
128,1,8,2,455,1,139.6704,47.9709,317.9655,1,2,3,1,1,0,0,139.6704,156.0076,0.80844,16.3373,20,
128,1,8,2,456,1,286.0016,45.0729,168.8158,1,3,2,3,0,1,0,168.8158,NaN,100000,999,0,
128,1,8,2,457,0,195.2941,256.1198,15.8399,0,0,0,1,0,0,0,195.2941,191.2162,0.87515,-4.0779,30,
128,1,8,2,458,1,138.5184,169.1855,258.6365,3,2,1,1,0,0,1,138.5184,127.686,0.8834,-10.8324,30,
128,1,8,2,459,0,19.902,108.5641,259.1282,0,0,0,1,0,0,0,19.902,32.7345,1.075,12.8325,20,
128,1,8,2,460,1,108.5872,226.0126,318.2188,3,1,2,3,1,0,0,318.2188,349.1042,0.80835,30.8854,0,
128,1,8,2,461,0,19.6597,105.4666,288.6939,0,0,0,2,0,0,0,105.4666,60.3219,0.57511,-45.1447,0,
128,1,8,2,462,1,109.9663,18.7877,196.3753,1,2,3,2,0,1,0,18.7877,NaN,100000,999,0,
128,1,8,2,463,0,139.1878,168.7421,197.9193,0,0,0,3,0,0,0,197.9193,193.6273,1.0083,-4.292,30,
128,1,8,2,464,0,136.7104,259.36,16.3401,0,0,0,1,0,0,0,136.7104,144.9254,1.2668,8.215,30,
128,1,8,2,465,1,136.4382,79.6219,316.4924,2,1,3,2,1,0,0,79.6219,139.7396,0.65836,60.1177,0,
128,1,8,2,466,1,196.6333,136.0981,167.5911,2,1,3,3,0,0,1,167.5911,173.0898,0.95847,5.4987,30,
128,1,8,2,467,1,226.3809,318.4812,259.4068,2,1,3,2,1,0,0,318.4812,205.2378,1.1084,-113.2434,0,
128,1,8,2,468,1,18.9916,169.3163,138.9898,1,3,2,1,1,0,0,18.9916,27.7899,1.0334,8.7984,30,
128,1,8,2,469,1,15.3526,75.3001,108.3079,3,1,2,3,1,0,0,108.3079,132.045,0.84175,23.7371,10,
128,1,8,2,470,0,46.2786,346.8916,169.9687,0,0,0,1,0,0,0,46.2786,39.1774,2.1502,-7.1012,30,
128,1,8,2,471,1,345.2622,106.6171,78.9984,3,2,1,1,0,0,1,345.2622,320.7391,1.6419,-24.5231,10,
128,1,8,2,472,0,348.2674,166.2214,78.7896,0,0,0,3,0,0,0,78.7896,64.4773,1.4001,-14.3123,20,
128,1,8,2,473,1,106.559,257.9588,76.8881,1,3,2,1,1,0,0,106.559,106.0668,1.0334,-0.49219,40,
128,1,8,2,474,0,317.6116,229.0412,257.2379,0,0,0,3,0,0,0,257.2379,235.0303,1.2002,-22.2076,10,
128,1,8,2,475,0,287.5106,197.8513,19.2574,0,0,0,1,0,0,0,287.5106,312.1483,1.1001,24.6377,10,
128,1,8,2,476,1,227.7234,199.2796,318.2134,3,1,2,3,1,0,0,318.2134,307.3138,2.0919,-10.8996,30,
128,1,8,2,477,1,76.0947,286.1864,255.0432,2,3,1,2,1,0,0,286.1864,290.456,1.2169,4.2696,30,
128,1,8,2,478,0,317.4562,198.8708,225.7391,0,0,0,3,0,0,0,225.7391,183.3149,0.91672,-42.4242,0,
128,1,8,2,479,0,46.7157,195.3171,168.0624,0,0,0,1,0,0,0,46.7157,50.044,2.0919,3.3283,30,
128,1,8,2,480,1,285.5423,79.2688,319.5543,2,1,3,2,1,0,0,79.2688,81.6251,1.4418,2.3563,40,
