Subject,Session,Block,Condition,Trial,whetherCued,leftStim,rightStim,midStim,remCueLoc,fogCueLoc,neutralCueLoc,probeCueLoc,probeRem,probeForget,probeNeutral,Target,Estimate,RT,Error,Points
115,1,1,1,1,0,136.1214,256.3453,18.3652,0,0,0,2,0,0,0,256.3453,316.1615,0.83321,59.8162,0,
115,1,1,1,2,0,289.4795,225.4954,105.2208,0,0,0,1,0,0,0,289.4795,271.1859,1.0347,-18.2935,20,
115,1,1,1,3,1,347.5064,287.1586,109.9878,2,1,3,2,1,0,0,287.1586,324.8344,0.91651,37.6758,0,
115,1,1,1,4,0,348.6529,108.2324,289.1658,0,0,0,1,0,0,0,348.6529,328.4035,1.4234,-20.2494,20,
115,1,1,1,5,1,107.4617,228.4737,289.8637,3,2,1,3,1,0,0,289.8637,238.4242,1.0481,-51.4394,0,
115,1,1,1,6,1,138.3022,255.2378,226.7439,2,3,1,1,0,0,1,138.3022,128.2728,1.2294,-10.0294,30,
115,1,1,1,7,1,197.5189,257.448,49.3852,3,1,2,3,1,0,0,49.3852,14.6493,1.2152,-34.7359,0,
115,1,1,1,8,1,105.0963,165.4194,19.874,1,2,3,1,1,0,0,105.0963,122.4175,1.0764,17.3212,20,
115,1,1,1,9,0,349.6502,286.9951,105.237,0,0,0,1,0,0,0,349.6502,180.4761,2.2845,-169.1741,0,
115,1,1,1,10,0,259.389,197.9122,285.3534,0,0,0,1,0,0,0,259.389,318.2241,1.2707,58.8352,0,
115,1,1,1,11,1,317.5194,78.234,226.5387,2,1,3,2,1,0,0,78.234,97.7235,0.77772,19.4895,20,
115,1,1,1,12,1,226.4331,199.0041,19.4806,2,1,3,2,1,0,0,199.0041,168.5075,1.9651,-30.4966,0,
115,1,1,1,13,1,199.1477,319.2454,226.8627,1,2,3,1,1,0,0,199.1477,164.5407,2.5484,-34.6069,0,
115,1,1,1,14,1,198.7837,137.0852,229.8589,1,2,3,2,0,1,0,137.0852,145.3301,1.6665,8.2449,30,
115,1,1,1,15,1,317.252,136.0284,79.4983,1,2,3,3,0,0,1,79.4983,294.6341,1.5624,-144.8641,0,
115,1,1,1,16,0,166.9501,227.4895,288.474,0,0,0,1,0,0,0,166.9501,150.8863,1.2846,-16.0638,20,
115,1,1,1,17,0,255.5852,109.0734,346.6243,0,0,0,3,0,0,0,346.6243,340.1218,0.95134,-6.5024,30,
115,1,1,1,18,1,19.1594,45.6717,75.3023,2,3,1,2,1,0,0,45.6717,40.3627,0.81938,-5.309,30,
115,1,1,1,19,1,139.9843,17.7677,197.5773,1,2,3,1,1,0,0,139.9843,153.866,0.86855,13.8817,20,
115,1,1,1,20,1,169.6556,105.9539,16.2929,1,2,3,2,0,1,0,105.9539,70.862,2.8469,-35.092,0,
115,1,1,1,21,0,198.6008,256.7345,227.585,0,0,0,1,0,0,0,198.6008,206.7842,1.4374,8.1834,30,
115,1,1,1,22,0,47.1514,228.4688,289.7261,0,0,0,2,0,0,0,228.4688,226.6062,1.6387,-1.8626,40,
115,1,1,1,23,0,288.3452,197.5011,346.09,0,0,0,1,0,0,0,288.3452,275.1714,1.5832,-13.1739,20,
115,1,1,1,24,1,229.3193,135.4885,169.5403,3,2,1,1,0,0,1,229.3193,244.0641,0.82631,14.7447,20,
115,1,1,1,25,1,137.5392,347.928,18.8144,1,2,3,1,1,0,0,137.5392,103.701,1.7081,-33.8382,0,
115,1,1,1,26,0,17.7694,108.4003,196.8359,0,0,0,2,0,0,0,108.4003,116.6494,2.4512,8.2491,30,
115,1,1,1,27,1,135.7013,16.3007,195.4341,3,2,1,3,1,0,0,195.4341,228.6163,1.5698,33.1823,0,
115,1,1,1,28,1,346.1034,285.0065,135.9459,1,2,3,2,0,1,0,285.0065,306.3394,1.0762,21.3329,10,
115,1,1,1,29,0,105.3418,17.1816,75.8693,0,0,0,1,0,0,0,105.3418,121.0747,0.97907,15.7329,20,
115,1,1,1,30,1,166.1401,16.8543,319.4546,2,3,1,2,1,0,0,16.8543,24.0038,0.81245,7.1494,30,
115,1,1,1,31,1,347.6621,78.5825,225.8965,2,3,1,1,0,0,1,347.6621,152.4465,0.74988,164.7844,0,
115,1,1,1,32,1,169.6783,319.0936,48.6413,1,3,2,1,1,0,0,169.6783,166.9109,3.1525,-2.7674,40,
115,1,1,1,33,1,108.812,17.8803,78.7383,3,1,2,3,1,0,0,78.7383,43.4827,1.9164,-35.2556,0,
115,1,1,1,34,1,347.6614,136.397,49.7312,2,3,1,2,1,0,0,136.397,152.691,0.8541,16.294,20,
115,1,1,1,35,0,78.6346,196.8692,47.9079,0,0,0,2,0,0,0,196.8692,154.3893,1.604,-42.4799,0,
115,1,1,1,36,0,45.7597,16.9855,196.8736,0,0,0,3,0,0,0,196.8736,223.0547,1.84,26.1811,10,
115,1,1,1,37,1,138.2116,316.1063,79.1853,2,1,3,2,1,0,0,316.1063,330.4524,0.9721,14.3461,20,
115,1,1,1,38,0,319.2929,289.5553,168.4982,0,0,0,3,0,0,0,168.4982,227.3519,1.0346,58.8537,0,
115,1,1,1,39,1,287.6468,199.1499,49.2938,3,1,2,2,0,0,1,199.1499,165.4302,1.7707,-33.7197,0,
115,1,1,1,40,1,169.2518,139.5582,198.1964,1,3,2,1,1,0,0,169.2518,259.4699,0.81938,90.2181,0,
115,1,1,1,41,1,169.1329,48.3844,286.038,3,2,1,3,1,0,0,286.038,229.8265,0.93041,-56.2116,0,
115,1,1,1,42,1,287.2569,316.9132,48.9482,2,1,3,2,1,0,0,316.9132,125.8706,1.5485,168.9574,0,
115,1,1,1,43,0,228.7938,349.9761,315.9329,0,0,0,3,0,0,0,315.9329,36.3626,2.8053,80.4297,0,
115,1,1,1,44,1,285.9688,47.1618,258.7458,2,1,3,2,1,0,0,47.1618,58.019,1.0976,10.8572,30,
115,1,1,1,45,0,19.6749,137.3974,346.159,0,0,0,2,0,0,0,137.3974,38.0749,1.4721,-99.3225,0,
115,1,1,1,46,1,287.6548,259.506,317.7028,2,1,3,2,1,0,0,259.506,91.2553,1.8192,-168.2507,0,
115,1,1,1,47,0,105.9911,165.9754,316.6342,0,0,0,3,0,0,0,316.6342,301.0059,1.5068,-15.6283,20,
115,1,1,1,48,1,109.0699,259.4922,77.1462,3,1,2,1,0,1,0,109.0699,262.5147,2.3401,153.4448,0,
115,1,1,1,49,1,315.4649,347.3174,285.0467,1,2,3,1,1,0,0,315.4649,286.2615,0.84013,-29.2035,10,
115,1,1,1,50,0,77.1828,225.2461,105.2482,0,0,0,1,0,0,0,77.1828,100.442,0.97912,23.2592,10,
115,1,1,1,51,1,17.3062,228.1966,259.5867,2,3,1,2,1,0,0,228.1966,248.9658,2.1594,20.7692,20,
115,1,1,1,52,1,19.9049,195.6352,286.1612,1,3,2,1,1,0,0,19.9049,34.4494,1.1458,14.5445,20,
115,1,1,1,53,0,19.2845,75.217,318.4581,0,0,0,2,0,0,0,75.217,61.7125,0.67354,-13.5045,20,
115,1,1,1,54,1,79.095,348.1246,228.6928,3,2,1,3,1,0,0,228.6928,235.9871,0.97916,7.2943,30,
115,1,1,1,55,1,49.4771,227.9126,257.9137,1,3,2,1,1,0,0,49.4771,57.8315,1.3332,8.3544,30,
115,1,1,1,56,1,47.0319,136.931,228.049,2,1,3,3,0,0,1,228.049,230.2366,1.0416,2.1876,40,
115,1,1,1,57,1,77.6151,16.6265,49.1592,2,3,1,2,1,0,0,16.6265,354.3348,1.1318,-22.2917,10,
115,1,1,1,58,0,137.6428,345.2572,78.7844,0,0,0,2,0,0,0,345.2572,349.0272,1.0901,3.77,30,
115,1,1,1,59,0,168.7425,317.7165,226.6907,0,0,0,2,0,0,0,317.7165,335.2607,0.75697,17.5442,20,
115,1,1,1,60,1,315.1258,197.0721,138.657,2,1,3,3,0,0,1,138.657,124.8333,0.86793,-13.8237,20,
115,1,2,1,61,0,315.8145,169.192,195.8378,0,0,0,3,0,0,0,195.8378,210.1503,0.91662,14.3125,20,
115,1,2,1,62,0,109.7017,135.0292,228.0515,0,0,0,2,0,0,0,135.0292,130.6179,0.806,-4.4112,30,
115,1,2,1,63,1,256.4523,47.0128,289.3103,1,3,2,3,0,1,0,289.3103,292.5445,1.7289,3.2343,30,
115,1,2,1,64,1,319.2054,76.7725,167.1503,1,3,2,2,0,0,1,76.7725,86.2811,2.0762,9.5086,30,
115,1,2,1,65,1,289.8173,135.4295,167.5025,3,2,1,3,1,0,0,167.5025,220.5044,0.74299,53.0019,0,
115,1,2,1,66,0,46.5193,197.4165,346.6891,0,0,0,1,0,0,0,46.5193,92.3121,1.1318,45.7928,0,
115,1,2,1,67,0,79.9262,107.7974,169.668,0,0,0,2,0,0,0,107.7974,153.7922,2.0415,45.9949,0,
115,1,2,1,68,1,135.5422,165.1806,228.0905,2,1,3,2,1,0,0,165.1806,154.9183,1.1458,-10.2623,30,
115,1,2,1,69,0,259.4502,346.651,166.1485,0,0,0,1,0,0,0,259.4502,242.465,0.82628,-16.9852,20,
115,1,2,1,70,0,135.5697,19.8928,79.243,0,0,0,3,0,0,0,79.243,49.7202,1.479,-29.5228,10,
115,1,2,1,71,0,285.5402,17.2994,137.2544,0,0,0,3,0,0,0,137.2544,299.5005,1.0688,162.2461,0,
115,1,2,1,72,1,138.7045,347.534,165.9996,2,3,1,2,1,0,0,347.534,346.9464,0.7431,-0.58754,40,
115,1,2,1,73,1,169.3879,345.0718,46.4715,1,2,3,1,1,0,0,169.3879,178.4958,1.6874,9.108,30,
115,1,2,1,74,1,227.7164,78.5126,19.7822,2,1,3,2,1,0,0,78.5126,4.5033,2.3124,-74.0093,0,
115,1,2,1,75,0,78.8751,319.5709,48.9128,0,0,0,2,0,0,0,319.5709,336.1772,1.1457,16.6062,20,
115,1,2,1,76,0,48.4957,168.9813,137.2079,0,0,0,3,0,0,0,137.2079,224.8813,1.1666,87.6734,0,
115,1,2,1,77,0,315.7287,287.9252,345.3668,0,0,0,3,0,0,0,345.3668,11.8418,1.7776,26.475,10,
115,1,2,1,78,0,286.8252,226.5457,315.6046,0,0,0,1,0,0,0,286.8252,261.2889,1.0902,-25.5363,10,
115,1,2,1,79,1,256.6999,319.2336,46.2303,1,3,2,1,1,0,0,256.6999,267.9972,0.83375,11.2973,30,
115,1,2,1,80,1,135.68,78.9445,105.462,2,1,3,1,0,1,0,135.68,125.6683,0.73604,-10.0117,30,
115,1,2,1,81,1,75.0988,319.8215,349.8519,2,3,1,2,1,0,0,319.8215,318.024,1.2915,-1.7975,40,
115,1,2,1,82,0,19.6916,226.2771,107.6658,0,0,0,2,0,0,0,226.2771,184.9547,1.8471,-41.3224,0,
115,1,2,1,83,0,138.9798,226.1669,78.0042,0,0,0,2,0,0,0,226.1669,226.5006,1.6387,0.33369,40,
115,1,2,1,84,0,346.4868,16.9821,317.1038,0,0,0,3,0,0,0,317.1038,285.7702,0.90272,-31.3336,0,
115,1,2,1,85,1,317.7541,79.3545,195.2113,1,2,3,2,0,1,0,79.3545,71.3211,0.77085,-8.0334,30,
115,1,2,1,86,1,47.5997,169.9459,257.4496,3,2,1,1,0,0,1,47.5997,88.0896,1.4166,40.4899,0,
115,1,2,1,87,1,79.0846,195.9474,105.6185,1,2,3,1,1,0,0,79.0846,67.0758,1.0068,-12.0087,20,
115,1,2,1,88,1,76.6599,319.1987,286.8586,3,2,1,1,0,0,1,76.6599,105.6496,1.3543,28.9897,10,
115,1,2,1,89,1,135.784,76.6302,46.5703,1,2,3,1,1,0,0,135.784,123.3455,0.9235,-12.4386,20,
115,1,2,1,90,0,286.0726,228.3995,167.7865,0,0,0,3,0,0,0,167.7865,231.6453,1.0208,63.8589,0,
115,1,2,1,91,1,287.0116,195.9092,139.2813,2,3,1,3,0,1,0,139.2813,210.9177,1.8054,71.6364,0,
115,1,2,1,92,1,225.9992,318.0367,107.7152,3,2,1,1,0,0,1,225.9992,228.6068,1.0693,2.6077,40,
115,1,2,1,93,1,48.791,169.4352,15.344,1,3,2,1,1,0,0,48.791,227.0416,0.81941,178.2506,0,
115,1,2,1,94,0,16.9081,317.8384,169.4393,0,0,0,1,0,0,0,16.9081,201.1508,0.69432,-175.7572,0,
115,1,2,1,95,1,139.6308,166.4925,256.6904,2,3,1,3,0,1,0,256.6904,231.8046,0.84715,-24.8858,10,
115,1,2,1,96,1,346.3991,77.235,47.9379,1,2,3,1,1,0,0,346.3991,308.3573,2.0831,-38.0418,0,
115,1,2,1,97,1,349.442,316.1658,289.308,2,3,1,2,1,0,0,316.1658,342.3593,1.0346,26.1934,10,
115,1,2,1,98,0,287.6372,108.625,348.0371,0,0,0,2,0,0,0,108.625,117.6347,1.4305,9.0098,30,
115,1,2,1,99,0,349.0746,135.7025,259.3993,0,0,0,1,0,0,0,349.0746,337.4846,1.715,-11.59,30,
115,1,2,1,100,0,15.4219,229.8604,285.1573,0,0,0,2,0,0,0,229.8604,243.6755,2.1804,13.8151,20,
115,1,2,1,101,0,318.2673,77.4483,349.8643,0,0,0,2,0,0,0,77.4483,59.445,2.8539,-18.0033,20,
115,1,2,1,102,0,287.6205,225.601,105.889,0,0,0,3,0,0,0,105.889,287.785,1.8541,-178.1039,0,
115,1,2,1,103,1,77.9122,257.105,345.4603,1,3,2,1,1,0,0,77.9122,91.4341,0.8472,13.5219,20,
115,1,2,1,104,1,15.8762,165.966,258.0821,1,3,2,1,1,0,0,15.8762,53.6637,1.2499,37.7875,0,
115,1,2,1,105,1,288.861,317.3768,18.4045,3,1,2,3,1,0,0,18.4045,18.377,1.3333,-0.027524,40,
115,1,2,1,106,0,139.1315,79.956,197.6197,0,0,0,3,0,0,0,197.6197,267.7027,1.5623,70.083,0,
115,1,2,1,107,1,317.3578,347.715,225.2985,2,3,1,2,1,0,0,347.715,41.8763,3.4928,54.1613,0,
115,1,2,1,108,0,79.1667,256.0186,227.7221,0,0,0,2,0,0,0,256.0186,73.6132,2.1456,177.5946,0,
115,1,2,1,109,1,165.6614,49.3524,348.0148,2,3,1,1,0,0,1,165.6614,151.5294,1.604,-14.132,20,
115,1,2,1,110,1,76.8968,319.3234,17.0998,1,2,3,1,1,0,0,76.8968,101.5549,1.4027,24.658,10,
115,1,2,1,111,0,349.1405,287.5372,16.8308,0,0,0,3,0,0,0,16.8308,15.9435,0.95823,-0.88733,40,
115,1,2,1,112,0,167.8456,109.3752,136.7429,0,0,0,2,0,0,0,109.3752,122.5919,0.88881,13.2167,20,
115,1,2,1,113,0,17.3376,75.7067,45.3407,0,0,0,1,0,0,0,17.3376,29.2392,0.96509,11.9016,30,
115,1,2,1,114,1,346.2021,48.4245,319.1963,3,2,1,3,1,0,0,319.1963,310.9245,0.65266,-8.2717,30,
115,1,2,1,115,0,316.9479,48.8765,285.8968,0,0,0,3,0,0,0,285.8968,309.2175,0.81247,23.3207,10,
115,1,2,1,116,0,169.6136,317.8213,17.1573,0,0,0,3,0,0,0,17.1573,24.7752,1.2915,7.6179,30,
115,1,2,1,117,1,79.9629,257.2792,17.1302,1,3,2,3,0,1,0,17.1302,22.4569,1.0416,5.3267,30,
115,1,2,1,118,1,348.4165,318.0428,46.0983,2,1,3,2,1,0,0,318.0428,327.16,0.90952,9.1172,30,
115,1,2,1,119,1,169.7606,319.8793,345.1546,1,2,3,1,1,0,0,169.7606,168.414,1.0971,-1.3467,40,
115,1,2,1,120,1,196.2163,77.8571,319.9086,2,1,3,1,0,1,0,196.2163,216.3525,1.0069,20.1361,20,
115,1,3,2,121,0,315.19,49.7712,258.7119,0,0,0,3,0,0,0,258.7119,242.9842,0.83307,-15.7276,20,
115,1,3,2,122,1,256.3059,75.474,107.2548,2,3,1,2,1,0,0,75.474,78.2517,0.64577,2.7776,40,
115,1,3,2,123,1,46.3872,285.0305,346.8736,1,3,2,1,1,0,0,46.3872,57.2254,0.86793,10.8382,30,
115,1,3,2,124,0,105.9184,319.3083,75.1632,0,0,0,2,0,0,0,319.3083,304.1047,1.5346,-15.2036,20,
115,1,3,2,125,0,106.5588,195.2766,18.769,0,0,0,3,0,0,0,18.769,4.391,0.90944,-14.378,20,
115,1,3,2,126,1,139.8817,17.9662,316.522,1,3,2,2,0,0,1,17.9662,357.4634,1.0276,-20.5028,20,
115,1,3,2,127,1,108.4447,349.7301,229.3677,1,3,2,1,1,0,0,108.4447,104.2292,0.85411,-4.2154,30,
115,1,3,2,128,1,319.9646,15.8124,75.5678,3,1,2,3,1,0,0,75.5678,31.5671,1.0902,-44.0007,0,
115,1,3,2,129,1,317.5047,196.66,135.8694,2,3,1,2,1,0,0,196.66,189.4507,1.4373,-7.2093,30,
115,1,3,2,130,1,287.6892,169.3546,108.6142,3,2,1,3,1,0,0,108.6142,104.4262,1.1249,-4.188,30,
115,1,3,2,131,1,347.3686,289.756,46.2448,2,1,3,2,1,0,0,289.756,312.2967,1.2852,22.5407,10,
115,1,3,2,132,0,167.2609,19.246,46.9522,0,0,0,2,0,0,0,19.246,7.2916,0.99316,-11.9544,30,
115,1,3,2,133,1,197.6056,138.8715,165.6013,2,3,1,2,1,0,0,138.8715,152.9378,1.3124,14.0662,20,
115,1,3,2,134,1,167.5071,256.385,287.6698,3,2,1,1,0,0,1,167.5071,174.0666,0.64588,6.5595,30,
115,1,3,2,135,1,75.2679,196.8753,288.875,2,3,1,2,1,0,0,196.8753,173.4783,1.3957,-23.3969,10,
115,1,3,2,136,1,197.5604,348.6066,259.6442,3,1,2,3,1,0,0,259.6442,253.4691,1.0416,-6.1751,30,
115,1,3,2,137,0,168.4379,109.9343,348.8497,0,0,0,3,0,0,0,348.8497,19.7783,1.2707,30.9286,0,
115,1,3,2,138,0,198.6208,258.0684,348.9148,0,0,0,2,0,0,0,258.0684,275.5306,1.7776,17.4622,20,
115,1,3,2,139,1,345.3642,288.7561,229.1559,1,2,3,1,1,0,0,345.3642,349.1513,1.2013,3.7872,30,
115,1,3,2,140,1,229.1626,289.9769,348.2488,3,2,1,1,0,0,1,229.1626,245.7943,0.96466,16.6318,20,
115,1,3,2,141,1,196.0322,256.693,137.8706,1,3,2,1,1,0,0,196.0322,206.8626,1.236,10.8304,30,
115,1,3,2,142,1,137.2949,199.3049,318.3042,3,2,1,3,1,0,0,318.3042,307.2199,1.1179,-11.0842,30,
115,1,3,2,143,1,319.5075,166.5917,77.9854,3,2,1,3,1,0,0,77.9854,43.1812,0.86104,-34.8042,0,
115,1,3,2,144,1,198.7463,49.2093,255.8344,2,3,1,2,1,0,0,49.2093,61.8379,1.1041,12.6287,20,
115,1,3,2,145,0,47.6562,169.7795,195.3334,0,0,0,3,0,0,0,195.3334,224.3478,0.86104,29.0144,10,
115,1,3,2,146,1,285.7627,255.7778,345.4478,3,1,2,3,1,0,0,345.4478,2.6143,0.96514,17.1664,20,
115,1,3,2,147,0,346.1715,287.3235,18.0969,0,0,0,1,0,0,0,346.1715,333.3325,1.0486,-12.839,20,
115,1,3,2,148,0,286.6012,47.4647,76.1083,0,0,0,1,0,0,0,286.6012,293.1745,1.0416,6.5733,30,
115,1,3,2,149,1,169.9519,135.1685,257.1213,3,2,1,3,1,0,0,257.1213,239.9553,0.81242,-17.1659,20,
115,1,3,2,150,1,135.5186,76.8876,286.3143,1,3,2,1,1,0,0,135.5186,146.5207,0.86105,11.0021,30,
115,1,3,2,151,1,136.9241,15.8132,228.9838,3,2,1,3,1,0,0,228.9838,229.0753,1.7846,0.091519,40,
115,1,3,2,152,1,256.3422,16.2905,47.405,2,1,3,1,0,1,0,256.3422,NaN,100000,999,0,
115,1,3,2,153,1,46.019,79.9667,135.4681,3,2,1,3,1,0,0,135.4681,207.7175,0.74302,72.2494,0,
115,1,3,2,154,0,139.2935,49.6024,78.7542,0,0,0,3,0,0,0,78.7542,227.966,1.4651,149.2118,0,
115,1,3,2,155,0,287.1087,317.0566,79.7957,0,0,0,1,0,0,0,287.1087,258.6286,0.7222,-28.4802,10,
115,1,3,2,156,1,108.3266,79.8213,348.3558,3,1,2,2,0,0,1,79.8213,86.5072,0.88182,6.6859,30,
115,1,3,2,157,1,75.3655,287.9028,346.4351,3,1,2,3,1,0,0,346.4351,356.558,0.75688,10.123,30,
115,1,3,2,158,1,198.7184,106.9255,16.2575,3,2,1,3,1,0,0,16.2575,4.4312,0.8191,-11.8263,30,
115,1,3,2,159,1,19.4394,316.2826,169.834,1,2,3,3,0,0,1,169.834,6.4168,0.88187,-163.4172,0,
115,1,3,2,160,1,198.7854,49.4316,347.3611,1,2,3,2,0,1,0,49.4316,NaN,100000,999,0,
115,1,3,2,161,0,256.8834,287.5216,198.8175,0,0,0,3,0,0,0,198.8175,245.6781,0.89584,46.8606,0,
115,1,3,2,162,0,15.4179,197.5633,289.1643,0,0,0,2,0,0,0,197.5633,187.0794,3.0483,-10.484,30,
115,1,3,2,163,0,225.9814,285.6068,317.7185,0,0,0,3,0,0,0,317.7185,286.1561,0.86104,-31.5624,0,
115,1,3,2,164,1,226.822,15.8574,348.9768,2,3,1,2,1,0,0,15.8574,347.7242,0.75683,-28.1333,10,
115,1,3,2,165,0,108.4765,49.8046,227.7316,0,0,0,1,0,0,0,108.4765,134.4864,0.80557,26.0098,10,
115,1,3,2,166,1,139.2915,349.5471,169.8083,2,3,1,2,1,0,0,349.5471,352.812,0.84707,3.2649,30,
115,1,3,2,167,1,317.665,166.6339,78.011,1,2,3,1,1,0,0,317.665,302.9144,1.0555,-14.7506,20,
115,1,3,2,168,0,45.8568,286.6499,19.8324,0,0,0,1,0,0,0,45.8568,67.7899,1.0555,21.9331,10,
115,1,3,2,169,0,106.7704,226.3312,346.4575,0,0,0,1,0,0,0,106.7704,95.0299,0.92348,-11.7405,30,
115,1,3,2,170,1,49.4181,287.1224,18.0363,2,3,1,2,1,0,0,287.1224,276.006,0.84721,-11.1164,30,
115,1,3,2,171,0,17.7364,197.7674,108.1529,0,0,0,2,0,0,0,197.7674,180.8909,1.8609,-16.8765,20,
115,1,3,2,172,0,345.4081,166.3724,229.3376,0,0,0,2,0,0,0,166.3724,147.3754,1.2152,-18.997,20,
115,1,3,2,173,0,198.8857,346.9197,288.5578,0,0,0,1,0,0,0,198.8857,211.4662,0.8749,12.5804,20,
115,1,3,2,174,0,285.827,225.908,348.4572,0,0,0,1,0,0,0,285.827,211.02,0.98574,-74.8069,0,
115,1,3,2,175,0,165.0106,319.7555,18.8315,0,0,0,3,0,0,0,18.8315,33.4134,1.479,14.5819,20,
115,1,3,2,176,0,45.903,107.8665,75.8178,0,0,0,2,0,0,0,107.8665,160.0603,0.97885,52.1938,0,
115,1,3,2,177,0,46.1465,285.9111,225.8318,0,0,0,3,0,0,0,225.8318,243.5501,0.74302,17.7184,20,
115,1,3,2,178,0,108.3036,169.7062,19.8785,0,0,0,2,0,0,0,169.7062,146.2463,0.97909,-23.4599,10,
115,1,3,2,179,1,259.2268,109.3944,138.7309,3,2,1,2,0,1,0,109.3944,NaN,100000,999,0,
115,1,3,2,180,1,17.2394,78.5482,169.7217,1,2,3,1,1,0,0,17.2394,264.8536,1.3332,-112.3858,0,
115,1,4,2,181,1,228.2734,195.1307,18.9289,2,3,1,2,1,0,0,195.1307,160.9776,0.8126,-34.1531,0,
115,1,4,2,182,0,109.9695,258.0224,229.7245,0,0,0,3,0,0,0,229.7245,249.2166,0.73602,19.4921,20,
115,1,4,2,183,1,285.552,166.0832,199.0551,1,2,3,1,1,0,0,285.552,264.3278,1.0276,-21.2242,10,
115,1,4,2,184,0,108.221,255.3397,226.0396,0,0,0,3,0,0,0,226.0396,250.7344,0.83325,24.6948,10,
115,1,4,2,185,1,319.6343,15.0415,79.1231,2,3,1,2,1,0,0,15.0415,18.4332,0.74297,3.3917,30,
115,1,4,2,186,1,289.6135,166.6016,349.2877,2,3,1,2,1,0,0,166.6016,147.8457,0.74992,-18.7559,20,
115,1,4,2,187,1,135.0642,315.9331,77.4262,1,2,3,1,1,0,0,135.0642,135.7484,0.9096,0.68419,40,
115,1,4,2,188,1,137.8393,227.1325,45.3812,1,2,3,1,1,0,0,137.8393,144.6204,0.72227,6.7811,30,
115,1,4,2,189,0,169.7982,15.4454,288.9887,0,0,0,1,0,0,0,169.7982,163.0457,0.91667,-6.7525,30,
115,1,4,2,190,0,137.5494,76.9126,259.5274,0,0,0,2,0,0,0,76.9126,25.0983,0.81937,-51.8143,0,
115,1,4,2,191,1,345.9222,75.2283,289.4252,1,3,2,1,1,0,0,345.9222,351.3926,1.1875,5.4704,30,
115,1,4,2,192,0,48.1135,105.3177,286.8675,0,0,0,2,0,0,0,105.3177,97.5556,1.1249,-7.7621,30,
115,1,4,2,193,1,76.7084,347.7434,17.3027,1,2,3,2,0,1,0,347.7434,NaN,100000,999,0,
115,1,4,2,194,1,257.1951,105.7453,195.1414,1,3,2,2,0,0,1,105.7453,100.8284,0.77015,-4.9169,30,
115,1,4,2,195,1,317.404,105.3326,79.4889,1,3,2,1,1,0,0,317.404,244.8236,0.55552,-72.5804,0,
115,1,4,2,196,0,76.7007,169.5946,107.2813,0,0,0,1,0,0,0,76.7007,71.0385,1.4791,-5.6622,30,
115,1,4,2,197,1,347.9954,168.0078,108.2471,3,1,2,2,0,0,1,168.0078,140.1842,0.68047,-27.8237,10,
115,1,4,2,198,0,136.8788,169.3173,286.4599,0,0,0,1,0,0,0,136.8788,159.5759,1.0345,22.6971,10,
115,1,4,2,199,0,196.4215,17.1766,229.5188,0,0,0,3,0,0,0,229.5188,218.7395,0.90276,-10.7793,30,
115,1,4,2,200,1,287.6707,136.834,196.8197,1,3,2,1,1,0,0,287.6707,262.9261,1.0138,-24.7446,10,
115,1,4,2,201,1,229.9196,49.8989,16.2508,1,2,3,1,1,0,0,229.9196,227.3276,1.0693,-2.592,40,
115,1,4,2,202,1,195.0178,169.0762,228.1921,3,2,1,3,1,0,0,228.1921,204.4068,0.67359,-23.7853,10,
115,1,4,2,203,0,257.3316,289.7577,49.825,0,0,0,3,0,0,0,49.825,19.1186,1.1528,-30.7064,0,
115,1,4,2,204,1,259.0554,288.5523,139.8512,2,1,3,3,0,0,1,139.8512,169.8229,0.74993,29.9717,10,
115,1,4,2,205,1,286.2257,165.3206,76.3157,1,3,2,1,1,0,0,286.2257,234.4509,0.69436,-51.7747,0,
115,1,4,2,206,1,315.0382,228.0546,17.0404,1,2,3,1,1,0,0,315.0382,277.3955,1.2916,-37.6427,0,
115,1,4,2,207,0,108.5521,168.4433,16.6047,0,0,0,2,0,0,0,168.4433,143.1272,0.7429,-25.3161,10,
115,1,4,2,208,1,75.8955,138.1723,319.8148,3,1,2,3,1,0,0,319.8148,42.2073,0.85407,82.3925,0,
115,1,4,2,209,1,169.5658,108.4126,319.7337,1,2,3,1,1,0,0,169.5658,181.88,0.50689,12.3142,20,
115,1,4,2,210,0,315.4142,19.752,75.0819,0,0,0,2,0,0,0,19.752,353.7833,1.111,-25.9687,10,
115,1,4,2,211,1,317.3943,106.5406,48.7222,3,2,1,1,0,0,1,317.3943,299.4837,1.0277,-17.9106,20,
115,1,4,2,212,1,286.3409,257.7512,45.9026,3,2,1,3,1,0,0,45.9026,32.1761,0.92357,-13.7265,20,
115,1,4,2,213,0,77.0324,49.759,139.5599,0,0,0,1,0,0,0,77.0324,269.2947,1.361,-167.7377,0,
115,1,4,2,214,0,318.0144,166.8875,138.3247,0,0,0,3,0,0,0,138.3247,118.3424,1.9859,-19.9823,20,
115,1,4,2,215,0,198.4041,109.616,45.7642,0,0,0,1,0,0,0,198.4041,212.8542,0.82629,14.4501,20,
115,1,4,2,216,0,45.5504,196.3961,258.8382,0,0,0,3,0,0,0,258.8382,248.602,0.91655,-10.2362,30,
115,1,4,2,217,0,226.2324,48.3037,346.647,0,0,0,2,0,0,0,48.3037,36.6763,1.0763,-11.6274,30,
115,1,4,2,218,1,49.0048,137.7749,107.0944,2,1,3,1,0,1,0,49.0048,NaN,100000,999,0,
115,1,4,2,219,1,167.4934,18.693,255.0638,2,3,1,3,0,1,0,255.0638,NaN,100000,999,0,
115,1,4,2,220,0,288.6709,195.521,228.9629,0,0,0,1,0,0,0,288.6709,268.3416,1.0485,-20.3293,20,
115,1,4,2,221,1,165.2439,196.5692,108.2082,3,1,2,3,1,0,0,108.2082,119.7735,0.92361,11.5654,30,
115,1,4,2,222,1,48.3979,197.8389,288.2589,3,2,1,2,0,1,0,197.8389,NaN,100000,999,0,
115,1,4,2,223,1,109.8933,45.5568,136.9804,1,2,3,1,1,0,0,109.8933,110.0725,0.72906,0.17921,40,
115,1,4,2,224,0,78.9946,289.6512,345.0236,0,0,0,2,0,0,0,289.6512,324.6901,1.361,35.0389,0,
115,1,4,2,225,0,165.1751,197.0274,76.2483,0,0,0,2,0,0,0,197.0274,179.4025,1.6665,-17.6249,20,
115,1,4,2,226,1,138.6715,347.4974,169.7165,1,3,2,1,1,0,0,138.6715,131.6318,0.66666,-7.0398,30,
115,1,4,2,227,1,167.6721,77.1758,345.7885,1,2,3,2,0,1,0,77.1758,NaN,100000,999,0,
115,1,4,2,228,1,79.4084,198.6705,227.0322,3,2,1,1,0,0,1,79.4084,114.2183,0.92346,34.8099,0,
115,1,4,2,229,1,256.2999,78.9343,137.5579,1,3,2,1,1,0,0,256.2999,226.8169,1.2151,-29.483,10,
115,1,4,2,230,0,258.2465,78.8143,167.8784,0,0,0,2,0,0,0,78.8143,60.432,0.88873,-18.3823,20,
115,1,4,2,231,1,315.1631,197.1487,45.1863,3,1,2,1,0,1,0,315.1631,NaN,100000,999,0,
115,1,4,2,232,1,166.0708,105.0193,259.4029,3,2,1,1,0,0,1,166.0708,180.9367,1.0069,14.8658,20,
115,1,4,2,233,1,285.4293,17.6559,49.4428,2,1,3,2,1,0,0,17.6559,20.0992,1.4513,2.4433,40,
115,1,4,2,234,0,137.0614,166.811,48.907,0,0,0,2,0,0,0,166.811,158.5776,2.1317,-8.2334,30,
115,1,4,2,235,0,258.397,19.884,195.6273,0,0,0,1,0,0,0,258.397,209.1759,0.93046,-49.2212,0,
115,1,4,2,236,0,167.6627,229.6285,109.4954,0,0,0,2,0,0,0,229.6285,215.4668,1.604,-14.1618,20,
115,1,4,2,237,1,289.3028,79.6955,258.401,3,1,2,3,1,0,0,258.401,272.9143,0.6874,14.5133,20,
115,1,4,2,238,0,167.6572,228.169,345.0705,0,0,0,1,0,0,0,167.6572,189.618,1.3541,21.9607,10,
115,1,4,2,239,0,78.7617,259.4745,169.2092,0,0,0,1,0,0,0,78.7617,81.5384,1.3958,2.7767,40,
115,1,4,2,240,0,138.6643,105.5838,18.7302,0,0,0,2,0,0,0,105.5838,109.7379,0.86798,4.1541,30,
115,1,5,2,241,0,167.0559,316.1824,255.9753,0,0,0,2,0,0,0,316.1824,338.8834,1.0624,22.701,10,
115,1,5,2,242,1,225.5146,49.9844,196.7948,2,3,1,2,1,0,0,49.9844,42.4481,0.73657,-7.5363,30,
115,1,5,2,243,1,77.9323,198.8902,258.6385,3,2,1,2,0,1,0,198.8902,NaN,100000,999,0,
115,1,5,2,244,1,228.7567,317.6118,347.4522,2,1,3,2,1,0,0,317.6118,332.141,1.1942,14.5292,20,
115,1,5,2,245,1,16.2011,225.3515,286.5002,1,2,3,1,1,0,0,16.2011,68.2722,1.0069,52.071,0,
115,1,5,2,246,1,166.4226,49.1528,229.0918,3,1,2,3,1,0,0,229.0918,238.6076,0.96521,9.5158,30,
115,1,5,2,247,0,48.2004,108.9378,136.35,0,0,0,2,0,0,0,108.9378,96.3457,1.6388,-12.5921,20,
115,1,5,2,248,1,135.4472,258.6564,229.5193,1,2,3,1,1,0,0,135.4472,138.6234,0.70134,3.1762,30,
115,1,5,2,249,0,139.9175,46.2417,348.0318,0,0,0,1,0,0,0,139.9175,146.4065,0.90961,6.489,30,
115,1,5,2,250,0,287.9163,196.3027,345.4241,0,0,0,2,0,0,0,196.3027,36.105,1.0416,-160.1977,0,
115,1,5,2,251,1,199.6498,106.4098,345.8444,2,3,1,2,1,0,0,106.4098,168.6784,0.89575,62.2686,0,
115,1,5,2,252,1,169.1344,316.5048,346.9194,2,1,3,2,1,0,0,316.5048,329.4075,0.73554,12.9027,20,
115,1,5,2,253,1,195.6162,138.6794,225.7831,3,2,1,3,1,0,0,225.7831,213.4806,0.97206,-12.3025,20,
115,1,5,2,254,1,105.6737,316.6189,199.7527,2,3,1,2,1,0,0,316.6189,326.4265,1.7221,9.8075,30,
115,1,5,2,255,1,319.0859,286.8877,49.863,2,1,3,2,1,0,0,286.8877,311.3184,0.84719,24.4306,10,
115,1,5,2,256,0,169.9745,197.4529,47.5173,0,0,0,3,0,0,0,47.5173,40.0436,0.88882,-7.4737,30,
115,1,5,2,257,1,108.6293,256.6972,346.3634,2,3,1,1,0,0,1,108.6293,85.3077,1.0417,-23.3217,10,
115,1,5,2,258,1,315.1454,285.681,18.4728,1,3,2,1,1,0,0,315.1454,291.1055,0.92352,-24.0399,10,
115,1,5,2,259,0,345.3735,195.9123,165.1584,0,0,0,2,0,0,0,195.9123,184.5619,1.3957,-11.3503,30,
115,1,5,2,260,1,48.6624,345.8147,229.6054,2,1,3,2,1,0,0,345.8147,322.8266,1.1527,-22.9882,10,
115,1,5,2,261,0,75.0066,49.9063,17.851,0,0,0,3,0,0,0,17.851,24.1524,1.0139,6.3014,30,
115,1,5,2,262,1,108.7804,256.4412,78.0309,2,3,1,3,0,1,0,78.0309,NaN,100000,999,0,
115,1,5,2,263,0,136.1479,165.0346,318.8332,0,0,0,1,0,0,0,136.1479,131.5948,1.0763,-4.5531,30,
115,1,5,2,264,1,197.5948,19.1099,348.1851,3,1,2,1,0,1,0,197.5948,NaN,100000,999,0,
115,1,5,2,265,1,107.0495,196.8559,226.1343,3,2,1,1,0,0,1,107.0495,99.707,0.98609,-7.3425,30,
115,1,5,2,266,0,168.9651,139.0778,48.7606,0,0,0,1,0,0,0,168.9651,154.8361,0.92348,-14.129,20,
115,1,5,2,267,1,317.7818,139.8454,168.4456,1,3,2,1,1,0,0,317.7818,314.2572,1.2223,-3.5247,30,
115,1,5,2,268,0,345.0331,197.9865,288.2959,0,0,0,2,0,0,0,197.9865,193.8146,1.1596,-4.1719,30,
115,1,5,2,269,0,168.9406,229.348,288.9377,0,0,0,3,0,0,0,288.9377,287.6643,1.4999,-1.2734,40,
115,1,5,2,270,1,165.9414,106.621,288.5802,2,1,3,2,1,0,0,106.621,101.1538,0.68796,-5.4672,30,
115,1,5,2,271,1,168.5983,256.5138,47.2951,3,2,1,3,1,0,0,47.2951,41.4054,0.86098,-5.8897,30,
115,1,5,2,272,1,17.1214,319.5277,287.0866,3,1,2,2,0,0,1,319.5277,322.0425,0.70133,2.5148,40,
115,1,5,2,273,0,285.9294,16.4572,317.3083,0,0,0,2,0,0,0,16.4572,30.1201,1.0277,13.6628,20,
115,1,5,2,274,1,135.8698,195.5877,105.8702,2,3,1,1,0,0,1,135.8698,164.5586,1.7985,28.6889,10,
115,1,5,2,275,1,107.3868,259.4494,195.3254,1,2,3,3,0,0,1,195.3254,223.5113,0.93741,28.1859,10,
115,1,5,2,276,1,136.9238,347.8132,168.1692,2,3,1,3,0,1,0,168.1692,NaN,100000,999,0,
115,1,5,2,277,1,227.7422,136.0392,108.9229,1,2,3,1,1,0,0,227.7422,222.4973,0.88197,-5.2449,30,
115,1,5,2,278,1,138.9978,348.9808,289.7704,3,2,1,3,1,0,0,289.7704,268.2403,0.72912,-21.5301,10,
115,1,5,2,279,0,136.8617,167.0285,17.1941,0,0,0,2,0,0,0,167.0285,157.6988,1.4585,-9.3297,30,
115,1,5,2,280,0,318.5183,259.5948,138.3004,0,0,0,3,0,0,0,138.3004,289.3691,0.93752,151.0687,0,
115,1,5,2,281,1,225.1476,257.3617,288.3922,3,1,2,3,1,0,0,288.3922,280.2392,0.8611,-8.153,30,
115,1,5,2,282,0,19.5042,105.6908,48.9704,0,0,0,2,0,0,0,105.6908,68.9534,0.99993,-36.7374,0,
115,1,5,2,283,1,45.9366,77.7282,136.2756,1,3,2,1,1,0,0,45.9366,202.2002,0.59721,156.2636,0,
115,1,5,2,284,1,169.4306,45.747,257.1734,1,3,2,1,1,0,0,169.4306,172.1643,0.66658,2.7337,40,
115,1,5,2,285,0,287.5569,16.0754,106.7305,0,0,0,2,0,0,0,16.0754,13.806,1.4998,-2.2694,40,
115,1,5,2,286,1,287.3987,75.9933,316.1951,2,3,1,3,0,1,0,316.1951,NaN,100000,999,0,
115,1,5,2,287,1,259.6331,285.4745,76.8771,2,3,1,1,0,0,1,259.6331,254.9707,0.77782,-4.6624,30,
115,1,5,2,288,0,197.3872,316.5277,47.5817,0,0,0,3,0,0,0,47.5817,42.073,0.8471,-5.5087,30,
115,1,5,2,289,0,319.7979,108.851,79.3751,0,0,0,3,0,0,0,79.3751,72.5168,1.2147,-6.8583,30,
115,1,5,2,290,1,16.3184,229.58,348.0752,3,2,1,3,1,0,0,348.0752,11.209,0.79854,23.1338,10,
115,1,5,2,291,1,347.7596,17.0191,198.7506,2,1,3,1,0,1,0,347.7596,NaN,100000,999,0,
115,1,5,2,292,1,229.2868,75.9901,315.778,2,1,3,2,1,0,0,75.9901,75.1588,0.61107,-0.83128,40,
115,1,5,2,293,0,76.7418,17.4316,258.3976,0,0,0,3,0,0,0,258.3976,263.5271,0.88882,5.1295,30,
115,1,5,2,294,0,139.9652,345.4822,196.5657,0,0,0,3,0,0,0,196.5657,224.894,1.0832,28.3283,10,
115,1,5,2,295,1,258.5304,135.1951,198.0815,2,1,3,1,0,1,0,258.5304,NaN,100000,999,0,
115,1,5,2,296,0,79.9196,45.2887,106.9827,0,0,0,3,0,0,0,106.9827,50.1996,0.77771,-56.7831,0,
115,1,5,2,297,1,139.4131,317.1872,79.1748,2,1,3,3,0,0,1,79.1748,69.2033,0.85408,-9.9715,30,
115,1,5,2,298,0,169.0204,227.8133,108.7544,0,0,0,1,0,0,0,169.0204,180.9935,1.1735,11.9731,30,
115,1,5,2,299,1,15.6194,315.9312,168.2325,1,2,3,1,1,0,0,15.6194,181.4282,0.6319,165.8088,0,
115,1,5,2,300,1,108.8763,47.9592,16.8809,1,2,3,3,0,0,1,16.8809,25.5998,1.3471,8.7189,30,
115,1,6,2,301,0,46.9234,135.2004,227.9147,0,0,0,1,0,0,0,46.9234,89.4741,0.58326,42.5507,0,
115,1,6,2,302,0,195.7893,347.5433,258.0165,0,0,0,3,0,0,0,258.0165,229.7497,0.77073,-28.2668,10,
115,1,6,2,303,0,16.8971,197.9642,135.3425,0,0,0,2,0,0,0,197.9642,163.9812,1.3193,-33.983,0,
115,1,6,2,304,0,347.1749,287.7893,258.1939,0,0,0,1,0,0,0,347.1749,358.0206,0.99998,10.8456,30,
115,1,6,2,305,1,16.4771,196.8306,76.7452,2,3,1,2,1,0,0,196.8306,185.4467,0.84011,-11.3839,30,
115,1,6,2,306,1,317.1352,167.8886,349.4976,3,1,2,2,0,0,1,167.8886,151.4787,0.93049,-16.4099,20,
115,1,6,2,307,0,349.4673,318.2654,15.2014,0,0,0,1,0,0,0,349.4673,334.2833,1.0068,-15.184,20,
115,1,6,2,308,1,348.6462,168.243,137.3733,2,1,3,2,1,0,0,168.243,137.2507,0.99302,-30.9922,0,
115,1,6,2,309,1,136.4477,45.0925,348.5075,2,1,3,2,1,0,0,45.0925,11.6165,0.87494,-33.476,0,
115,1,6,2,310,1,315.7111,256.8779,168.9678,2,1,3,2,1,0,0,256.8779,224.8587,1.1596,-32.0192,0,
115,1,6,2,311,1,169.758,196.7334,286.4866,1,3,2,1,1,0,0,169.758,164.1416,0.71529,-5.6164,30,
115,1,6,2,312,1,259.5246,346.4085,138.0694,1,2,3,2,0,1,0,346.4085,NaN,100000,999,0,
115,1,6,2,313,0,225.0449,48.5914,257.2471,0,0,0,1,0,0,0,225.0449,228.0292,1.5206,2.9843,40,
115,1,6,2,314,1,109.9422,346.2555,196.5774,1,3,2,1,1,0,0,109.9422,122.6592,0.8888,12.7171,20,
115,1,6,2,315,0,46.3042,227.4654,109.2792,0,0,0,3,0,0,0,109.2792,109.2216,0.9027,-0.05754,40,
115,1,6,2,316,0,257.3016,227.5784,76.36,0,0,0,3,0,0,0,76.36,57.2415,1.6318,-19.1184,20,
115,1,6,2,317,1,257.7944,16.1293,135.5226,1,2,3,2,0,1,0,16.1293,NaN,100000,999,0,
115,1,6,2,318,1,19.299,47.9853,288.2738,2,1,3,1,0,1,0,19.299,NaN,100000,999,0,
115,1,6,2,319,1,195.14,255.3342,79.6353,3,1,2,3,1,0,0,79.6353,36.6831,0.77065,-42.9522,0,
115,1,6,2,320,1,15.1824,255.3184,106.6144,1,3,2,2,0,0,1,255.3184,276.8012,1.2846,21.4827,10,
115,1,6,2,321,0,107.9897,225.1151,19.4971,0,0,0,1,0,0,0,107.9897,106.7942,0.95075,-1.1955,40,
115,1,6,2,322,0,197.2525,47.8892,285.3742,0,0,0,2,0,0,0,47.8892,54.7133,1.0903,6.8241,30,
115,1,6,2,323,1,17.2564,316.2498,139.7772,2,3,1,2,1,0,0,316.2498,316.8355,0.84706,0.58568,40,
115,1,6,2,324,0,17.2228,288.1376,347.6732,0,0,0,3,0,0,0,347.6732,354.2424,1.1456,6.5692,30,
115,1,6,2,325,1,317.5363,165.5686,257.4522,3,1,2,3,1,0,0,257.4522,252.3394,0.68046,-5.1128,30,
115,1,6,2,326,1,47.5541,317.8229,199.9686,2,1,3,2,1,0,0,317.8229,337.9031,1.1528,20.0802,20,
115,1,6,2,327,0,106.6799,75.7242,346.2244,0,0,0,2,0,0,0,75.7242,110.5837,1.2221,34.8595,0,
115,1,6,2,328,1,169.2888,79.31,346.5665,1,3,2,3,0,1,0,346.5665,NaN,100000,999,0,
115,1,6,2,329,1,319.3634,106.4291,198.2842,3,1,2,3,1,0,0,198.2842,215.8256,1.0069,17.5413,20,
115,1,6,2,330,1,349.5954,197.0535,78.6618,3,1,2,1,0,1,0,349.5954,NaN,100000,999,0,
115,1,6,2,331,1,15.0076,347.81,287.7324,3,1,2,3,1,0,0,287.7324,245.2368,0.86133,-42.4956,0,
115,1,6,2,332,1,285.9061,227.1312,255.4908,1,3,2,1,1,0,0,285.9061,277.5963,0.87488,-8.3098,30,
115,1,6,2,333,1,345.6878,197.1204,228.8228,3,1,2,3,1,0,0,228.8228,245.8252,1.0138,17.0024,20,
115,1,6,2,334,1,165.8893,259.9342,75.085,2,1,3,1,0,1,0,165.8893,NaN,100000,999,0,
115,1,6,2,335,1,18.1545,289.4599,318.367,1,2,3,1,1,0,0,18.1545,3.9386,1.104,-14.2159,20,
115,1,6,2,336,1,227.6908,319.5507,166.7535,1,3,2,3,0,1,0,166.7535,NaN,100000,999,0,
115,1,6,2,337,0,256.578,109.9701,229.9195,0,0,0,1,0,0,0,256.578,237.0191,0.74994,-19.5589,20,
115,1,6,2,338,1,258.626,319.1718,285.0945,3,2,1,1,0,0,1,258.626,240.5813,0.70135,-18.0447,20,
115,1,6,2,339,0,289.6574,136.8901,18.0884,0,0,0,1,0,0,0,289.6574,259.9351,0.74294,-29.7223,10,
115,1,6,2,340,1,107.9087,195.499,225.833,3,1,2,3,1,0,0,225.833,239.8695,0.69434,14.0365,20,
115,1,6,2,341,0,19.4256,46.0482,167.4018,0,0,0,2,0,0,0,46.0482,38.237,0.84022,-7.8112,30,
115,1,6,2,342,1,78.6958,106.2681,18.5963,1,2,3,2,0,1,0,106.2681,NaN,100000,999,0,
115,1,6,2,343,0,258.1371,347.3141,105.6472,0,0,0,3,0,0,0,105.6472,281.3421,0.94428,175.6949,0,
115,1,6,2,344,0,229.993,137.5676,346.9392,0,0,0,1,0,0,0,229.993,219.3212,0.95817,-10.6717,30,
115,1,6,2,345,1,199.8122,16.5687,48.9854,2,1,3,2,1,0,0,16.5687,14.0959,0.70828,-2.4728,40,
115,1,6,2,346,1,49.5963,169.9447,79.663,2,1,3,3,0,0,1,79.663,113.5757,1.2985,33.9127,0,
115,1,6,2,347,1,195.941,315.5034,346.4328,2,1,3,2,1,0,0,315.5034,333.0674,0.83318,17.564,20,
115,1,6,2,348,1,106.7758,228.1557,19.3227,1,3,2,1,1,0,0,106.7758,169.3367,1.4304,62.5609,0,
115,1,6,2,349,1,16.1481,136.7947,46.8158,3,1,2,3,1,0,0,46.8158,44.7977,0.84023,-2.0182,40,
115,1,6,2,350,0,346.4404,166.8831,225.7325,0,0,0,1,0,0,0,346.4404,307.6394,0.99288,-38.801,0,
115,1,6,2,351,1,255.7971,226.3939,18.2247,3,2,1,1,0,0,1,255.7971,223.7054,1.4235,-32.0917,0,
115,1,6,2,352,0,75.5483,347.8292,256.3717,0,0,0,3,0,0,0,256.3717,47.7569,1.979,151.3852,0,
115,1,6,2,353,1,288.1388,77.2337,19.0555,1,3,2,1,1,0,0,288.1388,243.3316,0.70819,-44.8072,0,
115,1,6,2,354,0,196.9487,15.7521,166.6685,0,0,0,3,0,0,0,166.6685,174.7734,1.8817,8.1049,30,
115,1,6,2,355,0,106.9478,257.4507,79.4345,0,0,0,1,0,0,0,106.9478,90.7186,1.1041,-16.2292,20,
115,1,6,2,356,1,319.31,345.6282,258.2279,3,1,2,3,1,0,0,258.2279,252.8475,0.61803,-5.3804,30,
115,1,6,2,357,1,138.9567,288.2831,107.7184,2,3,1,2,1,0,0,288.2831,292.2507,1.0346,3.9677,30,
115,1,6,2,358,0,315.156,289.1379,16.3213,0,0,0,3,0,0,0,16.3213,30.3655,0.95826,14.0442,20,
115,1,6,2,359,0,258.0154,135.9201,225.4373,0,0,0,1,0,0,0,258.0154,268.4619,0.84716,10.4465,30,
115,1,6,2,360,1,139.5235,198.8365,47.8133,2,1,3,2,1,0,0,198.8365,176.1874,1.173,-22.6491,10,
115,1,7,1,361,1,137.7436,195.0777,75.4734,2,1,3,2,1,0,0,195.0777,183.3184,0.81247,-11.7593,30,
115,1,7,1,362,1,256.7246,198.4634,348.583,1,2,3,1,1,0,0,256.7246,248.0735,0.75686,-8.6511,30,
115,1,7,1,363,1,135.1638,79.2181,258.8515,2,1,3,2,1,0,0,79.2181,84.0855,0.61807,4.8675,30,
115,1,7,1,364,1,318.2542,229.9111,195.9692,1,2,3,2,0,1,0,229.9111,172.6049,1.4166,-57.3062,0,
115,1,7,1,365,1,108.4551,288.2361,228.1172,3,1,2,3,1,0,0,228.1172,242.8691,0.90965,14.7519,20,
115,1,7,1,366,0,346.1287,288.3308,49.3567,0,0,0,1,0,0,0,346.1287,4.2623,1.0971,18.1336,20,
115,1,7,1,367,1,228.7525,46.6696,168.1642,3,2,1,3,1,0,0,168.1642,208.1995,0.7429,40.0354,0,
115,1,7,1,368,1,226.3755,139.1398,258.9639,1,2,3,3,0,0,1,258.9639,230.8872,1.2985,-28.0767,10,
115,1,7,1,369,1,79.0965,319.6324,17.5706,3,1,2,2,0,0,1,319.6324,112.874,1.354,153.2416,0,
115,1,7,1,370,1,319.6235,15.2778,76.9202,2,1,3,1,0,1,0,319.6235,289.6683,1.1457,-29.9553,10,
115,1,7,1,371,0,319.6585,285.5445,48.2585,0,0,0,1,0,0,0,319.6585,313.4847,0.92341,-6.1738,30,
115,1,7,1,372,0,106.2626,258.2717,15.3005,0,0,0,3,0,0,0,15.3005,5.615,1.5694,-9.6855,30,
115,1,7,1,373,0,49.0672,258.9382,345.6216,0,0,0,2,0,0,0,258.9382,279.2909,1.1805,20.3527,20,
115,1,7,1,374,1,166.1154,197.5488,18.9387,3,2,1,1,0,0,1,166.1154,188.4365,1.1527,22.3211,10,
115,1,7,1,375,0,135.6449,196.0742,226.4641,0,0,0,1,0,0,0,135.6449,164.6112,0.9651,28.9663,10,
115,1,7,1,376,1,258.7972,46.9971,227.8371,3,2,1,1,0,0,1,258.7972,218.2462,1.0485,-40.551,0,
115,1,7,1,377,1,19.3937,136.9647,106.2132,3,1,2,3,1,0,0,106.2132,246.959,0.90271,140.7458,0,
115,1,7,1,378,1,198.1299,16.6345,346.5555,1,3,2,2,0,0,1,16.6345,359.0946,1.0555,-17.54,20,
115,1,7,1,379,0,255.9533,317.2465,78.8433,0,0,0,2,0,0,0,317.2465,301.6748,1.6943,-15.5717,20,
115,1,7,1,380,1,106.7368,288.8994,198.5417,1,3,2,3,0,1,0,198.5417,230.6571,1.5068,32.1154,0,
115,1,7,1,381,1,226.6913,289.8702,169.7739,1,3,2,1,1,0,0,226.6913,101.2719,0.74993,-125.4194,0,
115,1,7,1,382,1,75.0635,45.6611,226.9403,1,3,2,1,1,0,0,75.0635,58.9008,0.77022,-16.1627,20,
115,1,7,1,383,0,195.7207,48.1759,349.0121,0,0,0,2,0,0,0,48.1759,36.4398,0.83314,-11.7361,30,
115,1,7,1,384,1,135.4763,286.2294,199.6733,3,1,2,2,0,0,1,286.2294,308.4416,1.0555,22.2122,10,
115,1,7,1,385,0,107.2227,346.6329,286.4365,0,0,0,1,0,0,0,107.2227,120.293,0.72213,13.0703,20,
115,1,7,1,386,0,167.3073,257.9357,47.388,0,0,0,3,0,0,0,47.388,29.4758,0.8333,-17.9122,20,
115,1,7,1,387,0,105.1816,45.943,347.8877,0,0,0,1,0,0,0,105.1816,77.6379,0.73599,-27.5437,10,
115,1,7,1,388,0,197.7527,139.9306,168.4489,0,0,0,2,0,0,0,139.9306,163.1362,1.2638,23.2056,10,
115,1,7,1,389,1,106.463,49.1621,137.8526,2,3,1,2,1,0,0,49.1621,40.7141,0.68046,-8.448,30,
115,1,7,1,390,0,18.0356,289.7875,76.6533,0,0,0,1,0,0,0,18.0356,8.271,1.1249,-9.7646,30,
115,1,7,1,391,1,45.3576,315.0784,289.8684,3,1,2,3,1,0,0,289.8684,290.1786,1.4171,0.31021,40,
115,1,7,1,392,1,78.5901,105.9445,317.1697,3,1,2,3,1,0,0,317.1697,289.1303,0.63897,-28.0394,10,
115,1,7,1,393,1,319.7139,18.3713,226.9283,2,3,1,2,1,0,0,18.3713,43.4225,0.9166,25.0512,10,
115,1,7,1,394,1,196.9913,225.6865,319.7638,3,2,1,3,1,0,0,319.7638,319.759,0.90278,-0.0048061,40,
115,1,7,1,395,0,75.4069,138.9374,255.872,0,0,0,1,0,0,0,75.4069,39.6691,1.8887,-35.7379,0,
115,1,7,1,396,0,347.3247,229.1204,79.3594,0,0,0,3,0,0,0,79.3594,15.9437,0.93742,-63.4157,0,
115,1,7,1,397,0,199.4692,169.205,48.4164,0,0,0,1,0,0,0,199.4692,201.8752,0.56247,2.406,40,
115,1,7,1,398,1,106.0224,15.3143,48.1119,3,1,2,3,1,0,0,48.1119,30.293,0.99983,-17.819,20,
115,1,7,1,399,1,347.7221,289.2307,45.2035,1,3,2,1,1,0,0,347.7221,351.6243,1.0138,3.9022,30,
115,1,7,1,400,1,288.0459,259.8347,198.8666,1,3,2,1,1,0,0,288.0459,265.8928,0.63893,-22.153,10,
115,1,7,1,401,0,138.5923,169.9766,75.4185,0,0,0,1,0,0,0,138.5923,152.3992,1.0757,13.8069,20,
115,1,7,1,402,1,138.4918,47.2984,315.7883,3,1,2,3,1,0,0,315.7883,312.7851,1.0277,-3.0032,30,
115,1,7,1,403,1,318.6274,135.6952,168.1628,3,1,2,1,0,1,0,318.6274,290.5183,0.93049,-28.1091,10,
115,1,7,1,404,1,198.2711,316.0916,345.5957,3,1,2,3,1,0,0,345.5957,357.0262,0.79161,11.4305,30,
115,1,7,1,405,1,19.5455,197.2517,168.7432,1,3,2,3,0,1,0,168.7432,2.5612,1.4027,-166.182,0,
115,1,7,1,406,0,196.9978,48.2766,317.8342,0,0,0,3,0,0,0,317.8342,308.0599,1.3263,-9.7743,30,
115,1,7,1,407,1,18.4428,258.0195,106.9348,2,3,1,3,0,1,0,106.9348,96.2817,1.111,-10.653,30,
115,1,7,1,408,0,18.089,137.9711,318.3294,0,0,0,3,0,0,0,318.3294,317.7067,1.0555,-0.62264,40,
115,1,7,1,409,0,285.4329,319.6342,15.7424,0,0,0,1,0,0,0,285.4329,279.854,0.78457,-5.5789,30,
115,1,7,1,410,0,167.2618,137.6668,287.6333,0,0,0,2,0,0,0,137.6668,96.8383,0.93051,-40.8285,0,
115,1,7,1,411,1,257.6176,76.6841,136.6619,3,1,2,3,1,0,0,136.6619,127.0665,0.95127,-9.5954,30,
115,1,7,1,412,1,318.6127,255.6712,169.2655,2,3,1,2,1,0,0,255.6712,255.2245,1.361,-0.44674,40,
115,1,7,1,413,1,195.6399,167.3218,78.713,1,3,2,1,1,0,0,195.6399,207.137,0.84714,11.4971,30,
115,1,7,1,414,0,255.0215,348.2625,136.8484,0,0,0,2,0,0,0,348.2625,337.7756,1.0484,-10.4869,30,
115,1,7,1,415,0,169.2599,195.5886,108.2863,0,0,0,3,0,0,0,108.2863,131.0575,1.1596,22.7712,10,
115,1,7,1,416,0,108.0519,256.2399,137.5898,0,0,0,1,0,0,0,108.0519,105.8057,0.9304,-2.2461,40,
115,1,7,1,417,1,315.776,79.9704,137.2512,1,2,3,1,1,0,0,315.776,301.9705,0.73606,-13.8055,20,
115,1,7,1,418,1,109.5576,45.6649,285.2108,2,1,3,3,0,0,1,285.2108,289.9007,1.2984,4.6898,30,
115,1,7,1,419,0,285.9982,227.6508,348.1368,0,0,0,1,0,0,0,285.9982,286.0548,0.98623,0.056643,40,
115,1,7,1,420,1,285.1161,195.8806,349.3046,2,3,1,2,1,0,0,195.8806,192.0352,0.74994,-3.8454,30,
115,1,8,1,421,1,139.1592,226.9724,75.4832,2,3,1,2,1,0,0,226.9724,189.3625,0.58378,-37.6098,0,
115,1,8,1,422,1,258.0006,19.9983,285.6459,3,1,2,3,1,0,0,285.6459,227.9287,0.60408,-57.7172,0,
115,1,8,1,423,0,347.863,79.9688,136.8148,0,0,0,2,0,0,0,79.9688,70.9753,1.1527,-8.9935,30,
115,1,8,1,424,1,138.8927,289.0539,347.4898,3,2,1,3,1,0,0,347.4898,348.7134,0.79162,1.2237,40,
115,1,8,1,425,0,139.122,45.8653,229.3182,0,0,0,3,0,0,0,229.3182,243.5647,0.90955,14.2465,20,
115,1,8,1,426,1,138.0311,78.9619,49.1808,2,1,3,2,1,0,0,78.9619,109.3276,0.6042,30.3657,0,
115,1,8,1,427,0,46.1867,195.6983,256.1037,0,0,0,2,0,0,0,195.6983,156.725,1.1803,-38.9733,0,
115,1,8,1,428,1,346.4768,289.5354,227.4644,3,2,1,3,1,0,0,227.4644,247.2502,0.81238,19.7858,20,
115,1,8,1,429,1,47.187,79.2999,15.0445,1,3,2,1,1,0,0,47.187,83.3507,0.74298,36.1637,0,
115,1,8,1,430,0,79.2645,348.4328,109.7906,0,0,0,2,0,0,0,348.4328,346.5192,0.80546,-1.9135,40,
115,1,8,1,431,1,166.9384,345.2837,198.4479,3,2,1,3,1,0,0,198.4479,201.3791,0.67355,2.9313,40,
115,1,8,1,432,0,46.1005,196.179,169.0506,0,0,0,3,0,0,0,169.0506,190.2178,0.97218,21.1671,10,
115,1,8,1,433,0,285.1488,259.3335,319.4721,0,0,0,2,0,0,0,259.3335,222.9011,2.2706,-36.4324,0,
115,1,8,1,434,0,315.0558,256.1726,168.5349,0,0,0,1,0,0,0,315.0558,320.8988,1.3679,5.843,30,
115,1,8,1,435,1,138.3282,106.1507,49.0244,2,3,1,2,1,0,0,106.1507,128.9032,0.82627,22.7524,10,
115,1,8,1,436,0,167.1549,138.8245,349.9823,0,0,0,3,0,0,0,349.9823,355.9064,1.3123,5.9241,30,
115,1,8,1,437,0,107.9765,77.5306,228.882,0,0,0,2,0,0,0,77.5306,72.8787,0.71517,-4.6518,30,
115,1,8,1,438,1,165.7078,228.0405,49.6531,3,2,1,1,0,0,1,165.7078,346.2152,1.5346,-179.4927,0,
115,1,8,1,439,1,348.1345,49.685,316.5997,2,1,3,3,0,0,1,316.5997,313.3158,0.97207,-3.2839,30,
115,1,8,1,440,1,75.7592,348.6651,45.1985,2,1,3,2,1,0,0,348.6651,338.1081,0.91022,-10.5569,30,
115,1,8,1,441,1,166.6833,319.4168,46.6683,3,2,1,3,1,0,0,46.6683,31.6667,0.72865,-15.0015,20,
115,1,8,1,442,1,78.6986,197.224,109.252,1,2,3,2,0,1,0,197.224,6.4146,1.6387,169.1906,0,
115,1,8,1,443,1,227.4811,166.4383,105.9151,1,3,2,1,1,0,0,227.4811,227.4704,0.97217,-0.010694,40,
115,1,8,1,444,0,226.7599,195.5008,288.965,0,0,0,1,0,0,0,226.7599,212.3763,0.90965,-14.3836,20,
115,1,8,1,445,1,228.4323,319.7786,106.5395,1,2,3,1,1,0,0,228.4323,224.9166,0.84029,-3.5158,30,
115,1,8,1,446,0,79.7326,317.4622,348.7411,0,0,0,1,0,0,0,79.7326,96.6972,0.71517,16.9646,20,
115,1,8,1,447,0,45.9115,197.797,18.1324,0,0,0,3,0,0,0,18.1324,13.5461,1.0137,-4.5862,30,
115,1,8,1,448,1,18.6621,168.1551,287.341,3,2,1,3,1,0,0,287.341,279.9051,0.61805,-7.4359,30,
115,1,8,1,449,1,136.0884,285.0426,346.5031,3,1,2,3,1,0,0,346.5031,355.341,0.75683,8.8378,30,
115,1,8,1,450,0,315.1533,349.0435,225.2357,0,0,0,2,0,0,0,349.0435,351.6988,0.77769,2.6553,40,
115,1,8,1,451,1,138.6936,315.0693,168.3956,2,3,1,3,0,1,0,168.3956,345.4613,0.89577,177.0657,0,
115,1,8,1,452,1,46.0342,105.1868,78.3168,3,2,1,3,1,0,0,78.3168,81.1171,0.85415,2.8003,40,
115,1,8,1,453,0,165.0947,45.9217,15.1337,0,0,0,2,0,0,0,45.9217,54.1059,1.0068,8.1841,30,
115,1,8,1,454,0,348.5217,318.8731,289.1133,0,0,0,3,0,0,0,289.1133,295.0916,0.7778,5.9783,30,
115,1,8,1,455,1,139.6704,47.9709,317.9655,2,1,3,2,1,0,0,47.9709,57.2688,0.7777,9.298,30,
115,1,8,1,456,1,286.0016,45.0729,168.8158,2,3,1,2,1,0,0,45.0729,52.2548,0.54163,7.1819,30,
115,1,8,1,457,1,195.2941,256.1198,15.8399,3,1,2,3,1,0,0,15.8399,4.723,1.0694,-11.1169,30,
115,1,8,1,458,1,138.5184,169.1855,258.6365,1,2,3,1,1,0,0,138.5184,146.7352,0.57638,8.2168,30,
115,1,8,1,459,1,19.902,108.5641,259.1282,3,2,1,2,0,1,0,108.5641,76.8042,0.86808,-31.76,0,
115,1,8,1,460,1,108.5872,226.0126,318.2188,2,1,3,2,1,0,0,226.0126,215.1282,1.4101,-10.8844,30,
115,1,8,1,461,0,19.6597,105.4666,288.6939,0,0,0,3,0,0,0,288.6939,278.9368,0.77086,-9.7571,30,
115,1,8,1,462,1,109.9663,18.7877,196.3753,3,1,2,2,0,0,1,18.7877,38.9785,1.8332,20.1908,20,
115,1,8,1,463,0,139.1878,168.7421,197.9193,0,0,0,3,0,0,0,197.9193,215.6382,0.9652,17.7189,20,
115,1,8,1,464,0,136.7104,259.36,16.3401,0,0,0,3,0,0,0,16.3401,22.956,1.1458,6.6159,30,
115,1,8,1,465,1,136.4382,79.6219,316.4924,3,2,1,2,0,1,0,79.6219,70.3636,0.93746,-9.2583,30,
115,1,8,1,466,1,196.6333,136.0981,167.5911,3,1,2,3,1,0,0,167.5911,183.8738,1.5416,16.2827,20,
115,1,8,1,467,1,226.3809,318.4812,259.4068,3,2,1,3,1,0,0,259.4068,246.0384,0.81941,-13.3683,20,
115,1,8,1,468,0,18.9916,169.3163,138.9898,0,0,0,2,0,0,0,169.3163,139.1638,0.81938,-30.1525,0,
115,1,8,1,469,1,15.3526,75.3001,108.3079,3,1,2,3,1,0,0,108.3079,101.5397,1.0419,-6.7681,30,
115,1,8,1,470,0,46.2786,346.8916,169.9687,0,0,0,1,0,0,0,46.2786,48.0628,1.2568,1.7842,40,
115,1,8,1,471,1,345.2622,106.6171,78.9984,3,1,2,3,1,0,0,78.9984,78.2333,0.93042,-0.76516,40,
115,1,8,1,472,0,348.2674,166.2214,78.7896,0,0,0,3,0,0,0,78.7896,85.8378,1.2847,7.0483,30,
115,1,8,1,473,1,106.559,257.9588,76.8881,1,2,3,2,0,1,0,257.9588,275.0089,1.1318,17.0501,20,
115,1,8,1,474,1,317.6116,229.0412,257.2379,2,1,3,3,0,0,1,257.2379,265.346,1.1665,8.1082,30,
115,1,8,1,475,1,287.5106,197.8513,19.2574,1,3,2,1,1,0,0,287.5106,269.8112,1.2569,-17.6994,20,
115,1,8,1,476,0,227.7234,199.2796,318.2134,0,0,0,1,0,0,0,227.7234,237.7893,0.97908,10.0659,30,
115,1,8,1,477,1,76.0947,286.1864,255.0432,1,3,2,3,0,1,0,255.0432,267.7631,1.0348,12.7199,20,
115,1,8,1,478,1,317.4562,198.8708,225.7391,2,3,1,3,0,1,0,225.7391,215.9736,1.1323,-9.7655,30,
115,1,8,1,479,1,46.7157,195.3171,168.0624,1,3,2,2,0,0,1,195.3171,194.409,0.95131,-0.90813,40,
115,1,8,1,480,1,285.5423,79.2688,319.5543,3,1,2,3,1,0,0,319.5543,319.5137,1.1735,-0.040548,40,
