Subject,Session,Block,Condition,Trial,whetherCued,leftStim,rightStim,midStim,remCueLoc,fogCueLoc,neutralCueLoc,probeCueLoc,probeRem,probeForget,probeNeutral,Target,Estimate,RT,Error,Points
114,1,1,2,1,0,285.3167,75.3195,349.6993,0,0,0,3,0,0,0,349.6993,12.8638,0.91615,23.1645,10,
114,1,1,2,2,1,317.7602,47.7922,225.3341,1,2,3,2,0,1,0,47.7922,NaN,100000,999,0,
114,1,1,2,3,0,345.9818,317.6386,285.7384,0,0,0,3,0,0,0,285.7384,300.2993,1.0584,14.5609,20,
114,1,1,2,4,0,15.6096,196.4513,135.3117,0,0,0,2,0,0,0,196.4513,207.6088,2.0752,11.1576,30,
114,1,1,2,5,1,46.0894,18.765,77.5992,2,1,3,2,1,0,0,18.765,40.6357,1.0751,21.8707,10,
114,1,1,2,6,1,136.9584,228.1068,79.8258,1,3,2,1,1,0,0,136.9584,143.9928,0.97512,7.0344,30,
114,1,1,2,7,1,289.1912,319.5068,107.2497,3,2,1,3,1,0,0,107.2497,106.0436,1.2667,-1.2062,40,
114,1,1,2,8,0,49.572,257.4728,198.5512,0,0,0,2,0,0,0,257.4728,234.0089,1.2001,-23.4639,10,
114,1,1,2,9,1,165.1693,347.2055,255.6489,2,3,1,2,1,0,0,347.2055,338.0589,1.4834,-9.1466,30,
114,1,1,2,10,1,228.007,199.7351,258.1561,3,1,2,2,0,0,1,199.7351,223.3881,1.2667,23.6531,10,
114,1,1,2,11,0,47.5178,139.5352,315.6181,0,0,0,2,0,0,0,139.5352,141.0996,1.2251,1.5644,40,
114,1,1,2,12,1,48.1707,168.8863,199.4925,2,1,3,2,1,0,0,168.8863,166.1404,1.0584,-2.746,40,
114,1,1,2,13,1,45.8059,17.0895,196.8453,1,3,2,2,0,0,1,17.0895,55.4277,1.4167,38.3381,0,
114,1,1,2,14,1,226.5243,18.8994,167.4361,3,2,1,2,0,1,0,18.8994,NaN,100000,999,0,
114,1,1,2,15,0,107.2871,288.6659,137.7912,0,0,0,3,0,0,0,137.7912,140.0709,1.175,2.2797,40,
114,1,1,2,16,0,345.9916,285.1034,258.9614,0,0,0,1,0,0,0,345.9916,330.7987,1.8751,-15.193,20,
114,1,1,2,17,0,17.4427,165.3267,137.2849,0,0,0,3,0,0,0,137.2849,153.0152,0.96675,15.7303,20,
114,1,1,2,18,1,225.5959,45.6461,285.3898,1,3,2,1,1,0,0,225.5959,201.5589,0.82493,-24.037,10,
114,1,1,2,19,1,345.5065,167.3447,108.5532,3,1,2,3,1,0,0,108.5532,92.8403,1.4083,-15.7129,20,
114,1,1,2,20,0,195.0114,49.7227,228.9624,0,0,0,1,0,0,0,195.0114,193.9251,0.84996,-1.0864,40,
114,1,1,2,21,1,318.2166,139.1068,106.8927,2,1,3,3,0,0,1,106.8927,125.8853,0.99183,18.9926,20,
114,1,1,2,22,1,18.1388,289.0957,195.9448,3,2,1,2,0,1,0,289.0957,NaN,100000,999,0,
114,1,1,2,23,1,229.4223,166.7051,346.0256,2,1,3,3,0,0,1,346.0256,334.5029,0.71675,-11.5227,30,
114,1,1,2,24,1,49.0602,75.163,347.0752,1,2,3,1,1,0,0,49.0602,62.0961,1.1583,13.0359,20,
114,1,1,2,25,0,346.1367,139.5344,49.3449,0,0,0,2,0,0,0,139.5344,133.3415,1.2167,-6.1929,30,
114,1,1,2,26,1,77.8374,108.2883,348.4279,1,3,2,1,1,0,0,77.8374,74.8781,1.5502,-2.9593,40,
114,1,1,2,27,0,77.0033,256.8647,17.2163,0,0,0,1,0,0,0,77.0033,61.686,1.2834,-15.3173,20,
114,1,1,2,28,1,288.4182,45.772,199.8716,2,3,1,2,1,0,0,45.772,228.2394,1.0835,-177.5326,0,
114,1,1,2,29,1,255.4666,286.0334,316.5138,2,1,3,2,1,0,0,286.0334,322.4651,1.2251,36.4317,0,
114,1,1,2,30,1,167.4432,225.3904,107.6503,3,1,2,1,0,1,0,167.4432,NaN,100000,999,0,
114,1,1,2,31,1,348.6538,109.5044,167.3202,2,3,1,2,1,0,0,109.5044,132.363,0.94178,22.8586,10,
114,1,1,2,32,1,255.7227,348.6468,197.4114,1,2,3,1,1,0,0,255.7227,250.1263,1.4501,-5.5964,30,
114,1,1,2,33,1,106.2995,48.3854,347.5991,2,1,3,2,1,0,0,48.3854,312.3002,2.4001,-96.0852,0,
114,1,1,2,34,0,48.8653,16.9624,78.0265,0,0,0,2,0,0,0,16.9624,40.241,1.0584,23.2786,10,
114,1,1,2,35,0,75.5347,288.3139,139.7729,0,0,0,3,0,0,0,139.7729,154.686,1.8501,14.9131,20,
114,1,1,2,36,1,229.6057,109.4654,319.9859,3,2,1,3,1,0,0,319.9859,310.4884,1.3251,-9.4975,30,
114,1,1,2,37,0,259.233,18.9726,109.5014,0,0,0,3,0,0,0,109.5014,130.5425,1.3252,21.0411,10,
114,1,1,2,38,1,256.0912,315.4982,168.0975,3,2,1,3,1,0,0,168.0975,148.2396,1.1001,-19.8579,20,
114,1,1,2,39,1,165.5577,17.8966,139.3519,3,2,1,3,1,0,0,139.3519,148.9806,1.35,9.6287,30,
114,1,1,2,40,0,139.5455,346.0382,196.9103,0,0,0,3,0,0,0,196.9103,193.3599,1.1084,-3.5504,30,
114,1,1,2,41,1,226.8033,199.4036,348.7218,2,1,3,2,1,0,0,199.4036,168.112,1.5667,-31.2916,0,
114,1,1,2,42,1,258.5107,76.1986,169.7974,3,2,1,3,1,0,0,169.7974,169.3996,1.0583,-0.39784,40,
114,1,1,2,43,1,46.1226,316.3501,257.0922,1,3,2,3,0,1,0,257.0922,NaN,100000,999,0,
114,1,1,2,44,1,138.3904,287.1424,258.274,3,1,2,3,1,0,0,258.274,246.039,1.425,-12.235,20,
114,1,1,2,45,1,286.8174,107.1734,348.438,2,1,3,2,1,0,0,107.1734,110.3467,2.9502,3.1733,30,
114,1,1,2,46,1,15.6333,107.5663,138.5797,3,2,1,3,1,0,0,138.5797,130.1582,1.4168,-8.4215,30,
114,1,1,2,47,1,257.6019,319.4264,18.2413,3,2,1,3,1,0,0,18.2413,9.3084,1.1334,-8.9329,30,
114,1,1,2,48,1,46.4256,137.6475,317.7992,2,1,3,2,1,0,0,137.6475,134.8307,1.5083,-2.8168,40,
114,1,1,2,49,1,348.2232,319.9007,165.5086,1,3,2,1,1,0,0,348.2232,339.6179,2.6668,-8.6053,30,
114,1,1,2,50,1,49.2794,288.072,15.5871,2,3,1,2,1,0,0,288.072,260.5963,1.4834,-27.4757,10,
114,1,1,2,51,0,315.4042,227.0562,48.5632,0,0,0,3,0,0,0,48.5632,40.4909,1.275,-8.0723,30,
114,1,1,2,52,1,258.014,17.9574,166.1263,3,2,1,3,1,0,0,166.1263,163.7048,1.375,-2.4215,40,
114,1,1,2,53,1,46.9871,225.5229,135.9693,2,3,1,2,1,0,0,225.5229,215.2834,1.95,-10.2395,30,
114,1,1,2,54,1,316.1599,105.8405,255.1336,3,1,2,3,1,0,0,255.1336,219.6325,1.9001,-35.5011,0,
114,1,1,2,55,1,137.1783,255.6832,346.4986,3,1,2,1,0,1,0,137.1783,NaN,100000,999,0,
114,1,1,2,56,1,226.1171,48.3665,259.0939,3,1,2,1,0,1,0,226.1171,NaN,100000,999,0,
114,1,1,2,57,1,167.0201,195.2052,76.4691,2,1,3,2,1,0,0,195.2052,233.8105,1.3834,38.6054,0,
114,1,1,2,58,0,17.6756,106.6678,139.2734,0,0,0,2,0,0,0,106.6678,137.5358,1.0083,30.868,0,
114,1,1,2,59,1,168.6383,19.2866,139.9592,1,3,2,1,1,0,0,168.6383,161.1005,1.3834,-7.5379,30,
114,1,1,2,60,0,109.1686,49.0772,256.6198,0,0,0,3,0,0,0,256.6198,266.8605,2.0585,10.2407,30,
114,1,2,2,61,0,135.2687,168.1844,109.8019,0,0,0,1,0,0,0,135.2687,140.9105,1.1417,5.6418,30,
114,1,2,2,62,0,198.5914,169.7232,105.4389,0,0,0,2,0,0,0,169.7232,158.9689,1.075,-10.7543,30,
114,1,2,2,63,1,166.5304,259.8329,315.6497,2,1,3,2,1,0,0,259.8329,262.8683,1.3918,3.0353,30,
114,1,2,2,64,1,348.519,288.9045,17.8242,2,3,1,3,0,1,0,17.8242,NaN,100000,999,0,
114,1,2,2,65,1,47.4122,17.1561,228.4941,2,1,3,2,1,0,0,17.1561,40.1629,0.85839,23.0068,10,
114,1,2,2,66,1,48.834,319.4916,78.8341,1,3,2,1,1,0,0,48.834,37.3541,1.2667,-11.4799,30,
114,1,2,2,67,0,259.652,137.2348,49.1694,0,0,0,1,0,0,0,259.652,50.1895,1.8917,150.5376,0,
114,1,2,2,68,1,77.4526,227.0373,345.4197,2,1,3,1,0,1,0,77.4526,NaN,100000,999,0,
114,1,2,2,69,0,107.4171,288.4239,317.4001,0,0,0,2,0,0,0,288.4239,287.9022,2.5835,-0.52171,40,
114,1,2,2,70,1,106.8887,256.3605,45.6265,2,1,3,2,1,0,0,256.3605,264.5163,1.6251,8.1558,30,
114,1,2,2,71,1,76.054,256.3269,109.9659,2,3,1,3,0,1,0,109.9659,NaN,100000,999,0,
114,1,2,2,72,0,256.552,16.7177,75.3811,0,0,0,2,0,0,0,16.7177,233.3038,4.3585,-143.414,0,
114,1,2,2,73,0,107.8588,347.9646,138.4931,0,0,0,2,0,0,0,347.9646,334.9136,2.5251,-13.051,20,
114,1,2,2,74,0,137.135,109.5651,19.4866,0,0,0,1,0,0,0,137.135,143.1291,1.4334,5.9941,30,
114,1,2,2,75,1,286.221,47.191,168.6755,3,2,1,3,1,0,0,168.6755,156.8224,1.2334,-11.853,30,
114,1,2,2,76,1,318.3402,105.7629,255.3135,1,3,2,1,1,0,0,318.3402,146.2761,1.3667,-172.064,0,
114,1,2,2,77,1,106.6075,289.4992,167.7106,3,1,2,1,0,1,0,106.6075,NaN,100000,999,0,
114,1,2,2,78,1,316.3664,228.7335,77.4394,3,1,2,3,1,0,0,77.4394,62.9372,1.2751,-14.5022,20,
114,1,2,2,79,0,108.9941,167.0244,137.4118,0,0,0,1,0,0,0,108.9941,124.7011,1.15,15.707,20,
114,1,2,2,80,1,228.6191,18.284,77.5739,3,1,2,2,0,0,1,18.284,27.6497,1.375,9.3657,30,
114,1,2,2,81,0,349.2665,317.3364,49.1836,0,0,0,1,0,0,0,349.2665,329.845,1.5252,-19.4214,20,
114,1,2,2,82,0,317.5743,19.9949,76.8866,0,0,0,2,0,0,0,19.9949,19.324,2.1752,-0.67092,40,
114,1,2,2,83,0,106.4416,15.825,77.2793,0,0,0,1,0,0,0,106.4416,121.8583,1.4501,15.4168,20,
114,1,2,2,84,0,46.3343,225.3428,16.568,0,0,0,3,0,0,0,16.568,356.3932,2.35,-20.1748,20,
114,1,2,2,85,1,106.3698,138.2755,77.0353,2,3,1,1,0,0,1,106.3698,132.8914,1.0834,26.5216,10,
114,1,2,2,86,1,229.4564,256.0814,18.4177,2,3,1,2,1,0,0,256.0814,261.6291,1.2334,5.5477,30,
114,1,2,2,87,0,47.0084,136.669,256.3379,0,0,0,3,0,0,0,256.3379,243.9541,1.7251,-12.3838,20,
114,1,2,2,88,1,165.9694,259.0404,49.9282,1,3,2,1,1,0,0,165.9694,160.2961,1.2168,-5.6733,30,
114,1,2,2,89,1,286.3771,227.098,17.985,2,1,3,2,1,0,0,227.098,231.755,1.8751,4.6569,30,
114,1,2,2,90,1,165.3123,15.8923,106.6913,1,3,2,1,1,0,0,165.3123,168.8533,0.92501,3.541,30,
114,1,2,2,91,1,47.5111,168.683,225.5606,2,3,1,2,1,0,0,168.683,154.6852,1.3333,-13.9978,20,
114,1,2,2,92,1,76.4371,229.5997,165.0303,2,1,3,2,1,0,0,229.5997,237.9454,2.0502,8.3456,30,
114,1,2,2,93,1,105.6268,287.1495,255.0818,3,2,1,1,0,0,1,105.6268,119.5042,1.2668,13.8774,20,
114,1,2,2,94,0,226.0151,18.975,199.8729,0,0,0,3,0,0,0,199.8729,208.4505,1.4584,8.5777,30,
114,1,2,2,95,0,257.4089,287.2294,198.9909,0,0,0,3,0,0,0,198.9909,193.7113,1.3001,-5.2796,30,
114,1,2,2,96,0,345.3147,139.6001,199.5308,0,0,0,2,0,0,0,139.6001,154.1725,1.6167,14.5724,20,
114,1,2,2,97,0,257.2098,349.198,168.0913,0,0,0,2,0,0,0,349.198,345.9302,2.8417,-3.2677,30,
114,1,2,2,98,0,285.0765,318.7534,75.3106,0,0,0,1,0,0,0,285.0765,262.3795,2.2668,-22.6969,10,
114,1,2,2,99,1,196.6344,135.5152,166.8521,3,2,1,1,0,0,1,196.6344,180.3811,1.1334,-16.2533,20,
114,1,2,2,100,0,256.9666,17.1023,225.6856,0,0,0,3,0,0,0,225.6856,232.2922,1.9584,6.6066,30,
114,1,2,2,101,1,48.808,348.2557,16.7554,2,1,3,2,1,0,0,348.2557,0.75022,1.0751,12.4945,20,
114,1,2,2,102,0,196.7117,317.8315,258.2726,0,0,0,1,0,0,0,196.7117,193.2131,1.2251,-3.4987,30,
114,1,2,2,103,1,109.5259,166.3226,229.7491,1,3,2,2,0,0,1,166.3226,163.1693,1.4251,-3.1533,30,
114,1,2,2,104,1,49.6735,226.8027,199.7386,3,1,2,3,1,0,0,199.7386,210.9924,1.3085,11.2538,30,
114,1,2,2,105,1,17.5412,259.2672,48.419,1,2,3,1,1,0,0,17.5412,349.3807,1.5419,-28.1605,10,
114,1,2,2,106,1,76.3878,165.5043,317.4946,3,1,2,3,1,0,0,317.4946,314.9394,0.70839,-2.5552,40,
114,1,2,2,107,1,317.5248,288.6106,258.8055,1,3,2,1,1,0,0,317.5248,322.4234,2.5167,4.8987,30,
114,1,2,2,108,0,225.586,76.8997,48.8242,0,0,0,3,0,0,0,48.8242,37.0101,1.8584,-11.814,30,
114,1,2,2,109,0,105.5768,227.506,289.0846,0,0,0,2,0,0,0,227.506,236.6249,1.5417,9.1189,30,
114,1,2,2,110,1,77.625,287.6556,349.3669,2,1,3,1,0,1,0,77.625,NaN,100000,999,0,
114,1,2,2,111,1,48.7756,137.6306,169.2506,2,3,1,2,1,0,0,137.6306,160.2163,1.3252,22.5858,10,
114,1,2,2,112,1,196.7002,228.3195,48.6368,2,3,1,2,1,0,0,228.3195,224.0467,1.5001,-4.2728,30,
114,1,2,2,113,0,15.5643,198.2512,75.9544,0,0,0,1,0,0,0,15.5643,10.7688,1.3333,-4.7956,30,
114,1,2,2,114,1,228.9358,345.9675,77.6546,2,3,1,3,0,1,0,77.6546,NaN,100000,999,0,
114,1,2,2,115,1,258.7655,168.5152,106.2331,1,3,2,1,1,0,0,258.7655,218.4394,1.4668,-40.3261,0,
114,1,2,2,116,1,15.5148,79.4181,107.6112,1,2,3,1,1,0,0,15.5148,1.9305,2.1166,-13.5843,20,
114,1,2,2,117,1,109.1522,198.3681,315.6973,3,1,2,1,0,1,0,109.1522,NaN,100000,999,0,
114,1,2,2,118,1,256.5109,226.4726,136.2991,3,2,1,2,0,1,0,226.4726,NaN,100000,999,0,
114,1,2,2,119,1,285.2877,135.1063,76.449,1,2,3,1,1,0,0,285.2877,317.7164,1.9917,32.4287,0,
114,1,2,2,120,0,346.9215,226.6007,256.9667,0,0,0,3,0,0,0,256.9667,253.5524,1.8584,-3.4143,30,
114,1,3,1,121,1,259.1155,19.3721,79.9918,2,3,1,2,1,0,0,19.3721,25.5606,1.1917,6.1885,30,
114,1,3,1,122,0,228.6716,19.9273,318.4939,0,0,0,2,0,0,0,19.9273,29.5625,1.8252,9.6352,30,
114,1,3,1,123,1,16.7771,137.1919,319.5439,3,1,2,1,0,1,0,16.7771,24.8367,1.6001,8.0596,30,
114,1,3,1,124,1,196.9012,286.0929,108.6133,1,2,3,1,1,0,0,196.9012,193.5541,1.6835,-3.3471,30,
114,1,3,1,125,1,195.0869,317.356,255.2304,3,1,2,3,1,0,0,255.2304,270.8772,1.4084,15.6468,20,
114,1,3,1,126,1,137.7151,286.7856,48.308,1,2,3,1,1,0,0,137.7151,149.6717,1.2417,11.9565,30,
114,1,3,1,127,0,46.9945,226.2444,289.6767,0,0,0,1,0,0,0,46.9945,28.7827,2.3002,-18.2118,20,
114,1,3,1,128,1,168.1491,257.3251,135.5459,2,1,3,2,1,0,0,257.3251,228.0788,1.6917,-29.2463,10,
114,1,3,1,129,0,289.1691,198.0293,47.5896,0,0,0,3,0,0,0,47.5896,42.0053,1.3668,-5.5843,30,
114,1,3,1,130,0,285.1747,348.8566,257.7026,0,0,0,3,0,0,0,257.7026,236.8012,1.6168,-20.9015,20,
114,1,3,1,131,1,199.1453,256.9438,225.8421,2,3,1,3,0,1,0,225.8421,229.3332,1.9501,3.4911,30,
114,1,3,1,132,1,317.7223,195.411,107.9906,3,2,1,3,1,0,0,107.9906,117.1127,1.325,9.1221,30,
114,1,3,1,133,1,18.1363,286.0297,259.9009,1,2,3,1,1,0,0,18.1363,2.07,1.9835,-16.0663,20,
114,1,3,1,134,1,136.3179,105.8739,316.8431,2,1,3,2,1,0,0,105.8739,112.0406,1.6083,6.1667,30,
114,1,3,1,135,1,136.8066,257.35,315.2939,3,2,1,2,0,1,0,257.35,244.9712,2.0501,-12.3788,20,
114,1,3,1,136,1,135.5589,287.4592,77.3078,2,3,1,1,0,0,1,135.5589,143.1292,0.99178,7.5703,30,
114,1,3,1,137,0,77.4983,227.9224,259.6238,0,0,0,1,0,0,0,77.4983,66.1962,1.3585,-11.302,30,
114,1,3,1,138,1,135.4817,15.6564,288.0495,2,1,3,2,1,0,0,15.6564,29.9776,1.1834,14.3212,20,
114,1,3,1,139,0,165.5533,138.2034,195.3601,0,0,0,1,0,0,0,165.5533,159.1699,1.1334,-6.3835,30,
114,1,3,1,140,1,226.3889,105.4855,258.9141,1,3,2,1,1,0,0,226.3889,208.223,1.5668,-18.1659,20,
114,1,3,1,141,1,316.1998,229.638,138.8149,2,3,1,1,0,0,1,316.1998,156.7331,6.0252,-159.4667,0,
114,1,3,1,142,0,228.7839,289.0142,349.0156,0,0,0,2,0,0,0,289.0142,289.8111,2.0501,0.79684,40,
114,1,3,1,143,0,47.9719,285.7687,315.3131,0,0,0,1,0,0,0,47.9719,33.0277,1.9584,-14.9442,20,
114,1,3,1,144,1,15.9456,345.3543,285.1893,3,1,2,3,1,0,0,285.1893,313.5729,0.85004,28.3836,10,
114,1,3,1,145,0,257.1512,169.3563,318.5363,0,0,0,3,0,0,0,318.5363,310.9609,0.9917,-7.5754,30,
114,1,3,1,146,1,15.2378,49.0018,227.3339,2,1,3,1,0,1,0,15.2378,32.6221,1.9667,17.3843,20,
114,1,3,1,147,1,316.2021,46.0129,226.7411,1,3,2,1,1,0,0,316.2021,325.3622,1.9669,9.1601,30,
114,1,3,1,148,1,45.168,78.0781,195.5609,2,1,3,3,0,0,1,195.5609,193.1955,1.5749,-2.3654,40,
114,1,3,1,149,1,79.0614,18.3341,46.9089,1,2,3,2,0,1,0,18.3341,27.7767,1.5918,9.4426,30,
114,1,3,1,150,0,75.1898,319.612,256.8657,0,0,0,3,0,0,0,256.8657,240.1062,4.3086,-16.7595,20,
114,1,3,1,151,0,105.108,136.7051,196.922,0,0,0,1,0,0,0,105.108,110.6395,2.2167,5.5315,30,
114,1,3,1,152,1,195.0824,15.7627,109.4977,1,3,2,1,1,0,0,195.0824,188.7552,1.4001,-6.3272,30,
114,1,3,1,153,1,49.6062,18.9082,286.2096,1,2,3,3,0,0,1,286.2096,297.6673,1.8502,11.4578,30,
114,1,3,1,154,1,347.6564,78.106,46.4017,1,3,2,1,1,0,0,347.6564,191.9942,2.5752,-155.6622,0,
114,1,3,1,155,0,288.4209,108.74,16.9582,0,0,0,3,0,0,0,16.9582,4.698,1.5001,-12.2603,20,
114,1,3,1,156,1,198.8892,137.8473,165.1055,1,3,2,3,0,1,0,165.1055,178.0543,1.15,12.9488,20,
114,1,3,1,157,1,75.1113,106.5056,346.4903,3,1,2,3,1,0,0,346.4903,338.6214,0.68342,-7.8689,30,
114,1,3,1,158,0,165.0545,49.0987,195.1713,0,0,0,3,0,0,0,195.1713,185.5011,0.70014,-9.6703,30,
114,1,3,1,159,0,109.1325,285.0534,255.4778,0,0,0,2,0,0,0,285.0534,290.773,1.9084,5.7196,30,
114,1,3,1,160,1,285.6432,316.1039,257.2678,1,2,3,2,0,1,0,316.1039,313.2637,1.1084,-2.8403,40,
114,1,3,1,161,1,106.1674,46.4605,138.3688,1,2,3,2,0,1,0,46.4605,85.7063,1.5584,39.2458,0,
114,1,3,1,162,0,318.877,196.767,139.1947,0,0,0,3,0,0,0,139.1947,139.1706,1.3002,-0.024174,40,
114,1,3,1,163,1,317.6756,17.5867,76.2786,1,2,3,1,1,0,0,317.6756,334.7713,3.7918,17.0957,20,
114,1,3,1,164,1,79.5412,286.426,255.6635,3,1,2,3,1,0,0,255.6635,304.4698,2.6085,48.8063,0,
114,1,3,1,165,0,19.3541,226.667,47.3152,0,0,0,2,0,0,0,226.667,230.544,1.2167,3.877,30,
114,1,3,1,166,1,347.7523,287.8153,316.523,2,3,1,2,1,0,0,287.8153,292.814,1.5001,4.9988,30,
114,1,3,1,167,1,288.0835,346.0155,108.388,1,2,3,1,1,0,0,288.0835,270.5908,1.4084,-17.4927,20,
114,1,3,1,168,0,228.9714,17.4431,165.6529,0,0,0,1,0,0,0,228.9714,218.3547,1.2418,-10.6167,30,
114,1,3,1,169,0,197.16,259.6526,137.5394,0,0,0,2,0,0,0,259.6526,258.64,1.0251,-1.0125,40,
114,1,3,1,170,1,286.7386,18.3336,197.2723,3,1,2,3,1,0,0,197.2723,198.6032,1.3084,1.3309,40,
114,1,3,1,171,1,45.0451,345.8454,256.0319,3,2,1,3,1,0,0,256.0319,215.1284,1.1335,-40.9036,0,
114,1,3,1,172,0,76.3501,257.4088,286.1034,0,0,0,1,0,0,0,76.3501,50.8901,1.3584,-25.4599,10,
114,1,3,1,173,1,348.0693,226.4195,287.5407,3,2,1,3,1,0,0,287.5407,290.2107,0.80832,2.6701,40,
114,1,3,1,174,1,47.3497,198.9559,107.0938,2,3,1,2,1,0,0,198.9559,192.8328,2.1,-6.1231,30,
114,1,3,1,175,1,139.5776,257.6101,315.2598,3,1,2,3,1,0,0,315.2598,311.0342,0.79168,-4.2256,30,
114,1,3,1,176,1,317.2746,198.2531,169.5221,3,1,2,3,1,0,0,169.5221,162.0754,0.96678,-7.4468,30,
114,1,3,1,177,0,78.0946,289.8516,108.346,0,0,0,3,0,0,0,108.346,111.2986,1.1168,2.9526,40,
114,1,3,1,178,1,77.5057,315.7093,347.0319,3,1,2,1,0,1,0,77.5057,63.0074,1.625,-14.4984,20,
114,1,3,1,179,1,169.1646,347.5077,255.5137,3,1,2,2,0,0,1,347.5077,342.6243,1.5835,-4.8834,30,
114,1,3,1,180,0,315.7681,196.5423,75.6546,0,0,0,2,0,0,0,196.5423,200.6728,1.3418,4.1305,30,
114,1,4,1,181,1,168.0693,198.2604,318.0067,2,1,3,2,1,0,0,198.2604,190.5024,1.0001,-7.758,30,
114,1,4,1,182,1,226.9859,346.3891,136.8093,3,1,2,3,1,0,0,136.8093,132.2753,0.91671,-4.534,30,
114,1,4,1,183,1,108.2279,77.5562,318.3105,1,3,2,2,0,0,1,77.5562,64.1665,1.2418,-13.3897,20,
114,1,4,1,184,1,226.3128,75.3932,316.1006,1,3,2,1,1,0,0,226.3128,212.1193,4.7668,-14.1935,20,
114,1,4,1,185,1,225.0231,195.9423,138.8982,3,1,2,3,1,0,0,138.8982,141.29,1.4084,2.3918,40,
114,1,4,1,186,1,288.3429,137.1089,198.5138,2,3,1,2,1,0,0,137.1089,137.1828,1.3667,0.073914,40,
114,1,4,1,187,0,346.2418,138.6184,227.1619,0,0,0,3,0,0,0,227.1619,202.7097,1.2917,-24.4522,10,
114,1,4,1,188,0,136.522,316.7142,48.2967,0,0,0,2,0,0,0,316.7142,131.3001,4.0085,174.5858,0,
114,1,4,1,189,0,18.38,319.3721,136.6547,0,0,0,3,0,0,0,136.6547,129.801,1.2501,-6.8537,30,
114,1,4,1,190,0,345.7102,136.0875,288.8873,0,0,0,1,0,0,0,345.7102,342.8765,3.2752,-2.8337,40,
114,1,4,1,191,1,46.6209,345.8303,319.9904,2,1,3,2,1,0,0,345.8303,346.0236,1.6167,0.19326,40,
114,1,4,1,192,1,227.2501,195.8128,168.8246,1,2,3,3,0,0,1,168.8246,164.6677,1.2168,-4.1569,30,
114,1,4,1,193,1,137.7538,45.1055,348.6839,3,2,1,1,0,0,1,137.7538,149.704,1.1001,11.9502,30,
114,1,4,1,194,0,225.8808,76.1622,348.5751,0,0,0,2,0,0,0,76.1622,78.1669,1.6751,2.0047,40,
114,1,4,1,195,1,165.3812,286.8469,259.0312,2,3,1,2,1,0,0,286.8469,287.0888,1.9501,0.24196,40,
114,1,4,1,196,0,285.8175,136.6198,319.0451,0,0,0,1,0,0,0,285.8175,305.0691,2.7085,19.2516,20,
114,1,4,1,197,0,256.5306,136.4539,17.1526,0,0,0,2,0,0,0,136.4539,136.5909,1.1666,0.13701,40,
114,1,4,1,198,1,168.5928,137.1222,46.2418,2,3,1,2,1,0,0,137.1222,144.3629,1.0333,7.2407,30,
114,1,4,1,199,0,109.2626,289.9196,255.2693,0,0,0,3,0,0,0,255.2693,262.4444,0.86672,7.1751,30,
114,1,4,1,200,1,136.6332,196.8498,317.464,3,1,2,1,0,1,0,136.6332,143.6813,1.0167,7.0481,30,
114,1,4,1,201,1,15.2638,49.8001,228.361,3,2,1,3,1,0,0,228.361,221.123,1.8167,-7.238,30,
114,1,4,1,202,1,169.6403,19.403,288.0954,3,1,2,3,1,0,0,288.0954,286.2646,1.1585,-1.8308,40,
114,1,4,1,203,0,107.8175,135.7213,349.2803,0,0,0,1,0,0,0,107.8175,128.5033,1.5333,20.6858,20,
114,1,4,1,204,1,17.5607,137.5771,197.3447,2,3,1,1,0,0,1,17.5607,26.6169,2.2169,9.0561,30,
114,1,4,1,205,0,15.3174,137.9558,49.4988,0,0,0,1,0,0,0,15.3174,16.8165,1.2334,1.4991,40,
114,1,4,1,206,1,257.6961,289.6863,136.2781,3,2,1,3,1,0,0,136.2781,136.4792,1.2417,0.20101,40,
114,1,4,1,207,0,228.2249,256.091,138.4745,0,0,0,3,0,0,0,138.4745,125.7733,1.1333,-12.7012,20,
114,1,4,1,208,0,19.1114,286.5951,318.2852,0,0,0,3,0,0,0,318.2852,323.8214,0.76673,5.5362,30,
114,1,4,1,209,0,108.1345,49.2601,77.4513,0,0,0,2,0,0,0,49.2601,37.2977,1.0583,-11.9624,30,
114,1,4,1,210,1,18.7848,106.6625,229.4028,3,2,1,3,1,0,0,229.4028,223.2083,1.075,-6.1945,30,
114,1,4,1,211,0,108.9877,198.9369,255.4779,0,0,0,1,0,0,0,108.9877,115.5426,1.7001,6.555,30,
114,1,4,1,212,1,287.6485,16.1093,108.7409,1,3,2,1,1,0,0,287.6485,292.9904,2.1835,5.3419,30,
114,1,4,1,213,1,105.0812,136.0001,199.2925,1,3,2,1,1,0,0,105.0812,110.3342,1.3417,5.253,30,
114,1,4,1,214,0,15.0584,198.6422,47.0765,0,0,0,2,0,0,0,198.6422,192.417,1.9252,-6.2251,30,
114,1,4,1,215,1,79.6144,317.3332,16.8441,2,3,1,2,1,0,0,317.3332,336.5234,2.3085,19.1902,20,
114,1,4,1,216,1,46.5986,198.3553,347.6198,2,3,1,1,0,0,1,46.5986,32.3766,1.6584,-14.222,20,
114,1,4,1,217,0,75.0974,348.0374,167.694,0,0,0,3,0,0,0,167.694,155.9583,1.3751,-11.7357,30,
114,1,4,1,218,1,229.3881,318.0286,348.2341,3,2,1,3,1,0,0,348.2341,333.4884,0.65019,-14.7457,20,
114,1,4,1,219,1,255.3654,18.7902,135.2536,1,2,3,1,1,0,0,255.3654,230.4331,1.1334,-24.9323,10,
114,1,4,1,220,0,319.0146,258.651,168.9736,0,0,0,3,0,0,0,168.9736,147.02,0.92503,-21.9535,10,
114,1,4,1,221,1,316.7372,75.6977,286.0812,2,1,3,3,0,0,1,286.0812,279.562,1.3418,-6.5192,30,
114,1,4,1,222,1,45.1275,316.1684,259.8939,2,1,3,2,1,0,0,316.1684,327.3076,1.7751,11.1391,30,
114,1,4,1,223,0,75.7855,108.128,139.6292,0,0,0,2,0,0,0,108.128,113.914,1.2334,5.786,30,
114,1,4,1,224,0,196.5227,258.358,346.0222,0,0,0,1,0,0,0,196.5227,184.6445,0.91669,-11.8782,30,
114,1,4,1,225,0,48.9004,168.5124,227.1034,0,0,0,2,0,0,0,168.5124,157.6001,1.2,-10.9123,30,
114,1,4,1,226,1,317.9409,46.2309,196.9919,1,3,2,1,1,0,0,317.9409,324.2592,1.75,6.3183,30,
114,1,4,1,227,0,225.3126,345.1289,316.6706,0,0,0,2,0,0,0,345.1289,340.0142,1.5668,-5.1147,30,
114,1,4,1,228,0,286.9961,135.3096,166.4648,0,0,0,2,0,0,0,135.3096,142.0675,7.4503,6.7579,30,
114,1,4,1,229,0,229.791,79.0882,287.1195,0,0,0,1,0,0,0,229.791,230.7955,1.0751,1.0044,40,
114,1,4,1,230,1,256.2072,168.4799,195.0763,1,2,3,1,1,0,0,256.2072,242.6043,1.1668,-13.6028,20,
114,1,4,1,231,1,315.0164,255.2243,165.9456,2,1,3,1,0,1,0,315.0164,252.1475,1.2252,-62.8689,0,
114,1,4,1,232,1,346.3173,229.9929,18.5527,2,1,3,2,1,0,0,229.9929,254.8451,1.8252,24.8521,10,
114,1,4,1,233,0,196.3801,76.5574,288.3328,0,0,0,1,0,0,0,196.3801,197.7008,0.88337,1.3207,40,
114,1,4,1,234,0,137.227,347.3276,318.6834,0,0,0,3,0,0,0,318.6834,299.6901,1.2,-18.9933,20,
114,1,4,1,235,0,109.2114,78.9399,257.6819,0,0,0,3,0,0,0,257.6819,276.6878,1.55,19.006,20,
114,1,4,1,236,0,19.2867,228.0358,255.9856,0,0,0,1,0,0,0,19.2867,359.3883,1.8001,-19.8983,20,
114,1,4,1,237,1,139.962,18.3997,349.6745,2,3,1,2,1,0,0,18.3997,15.637,1.0751,-2.7626,40,
114,1,4,1,238,0,106.4416,225.9318,259.7367,0,0,0,2,0,0,0,225.9318,239.3556,1.9834,13.4238,20,
114,1,4,1,239,0,108.8845,315.6691,48.501,0,0,0,2,0,0,0,315.6691,319.7861,1.8335,4.117,30,
114,1,4,1,240,1,76.7845,165.5625,256.2754,2,1,3,2,1,0,0,165.5625,153.2401,1.1084,-12.3225,20,
114,1,5,1,241,1,228.2911,16.305,196.4227,2,1,3,2,1,0,0,16.305,10.3628,1.3001,-5.9422,30,
114,1,5,1,242,1,227.3688,79.2558,19.6459,1,3,2,2,0,0,1,79.2558,69.0318,1.0917,-10.2241,30,
114,1,5,1,243,1,16.426,259.5793,288.3534,1,2,3,2,0,1,0,259.5793,266.464,1.325,6.8847,30,
114,1,5,1,244,0,229.6716,108.9759,77.2713,0,0,0,2,0,0,0,108.9759,109.8219,1.0833,0.84601,40,
114,1,5,1,245,0,259.5596,136.7567,46.8618,0,0,0,3,0,0,0,46.8618,63.1858,1.3334,16.324,20,
114,1,5,1,246,0,228.1282,15.9025,195.1504,0,0,0,1,0,0,0,228.1282,223.0012,1.1834,-5.127,30,
114,1,5,1,247,1,259.7368,16.5834,137.8908,1,3,2,1,1,0,0,259.7368,226.4734,1.1418,-33.2634,0,
114,1,5,1,248,1,199.7466,319.7965,19.9497,3,1,2,3,1,0,0,19.9497,3.9807,0.88351,-15.969,20,
114,1,5,1,249,0,199.978,259.3475,169.7395,0,0,0,2,0,0,0,259.3475,237.1519,1.8668,-22.1956,10,
114,1,5,1,250,1,49.2368,226.2849,286.886,2,1,3,3,0,0,1,286.886,300.8789,0.6917,13.9929,20,
114,1,5,1,251,1,78.4787,138.4745,289.2668,3,1,2,1,0,1,0,78.4787,211.5022,1.4084,133.0235,0,
114,1,5,1,252,0,285.1528,317.72,19.1175,0,0,0,3,0,0,0,19.1175,22.7843,1.0169,3.6668,30,
114,1,5,1,253,0,75.3009,349.3086,225.3544,0,0,0,1,0,0,0,75.3009,59.2056,1.5834,-16.0954,20,
114,1,5,1,254,1,135.38,105.1417,197.1675,2,1,3,1,0,1,0,135.38,129.0043,1.0834,-6.3757,30,
114,1,5,1,255,0,79.8943,108.3037,19.2312,0,0,0,2,0,0,0,108.3037,103.7476,1.2084,-4.5561,30,
114,1,5,1,256,1,76.2625,197.1947,17.9359,1,2,3,2,0,1,0,197.1947,163.7304,2.3333,-33.4643,0,
114,1,5,1,257,1,285.1975,227.1738,165.8719,1,3,2,3,0,1,0,165.8719,150.6962,1.6335,-15.1757,20,
114,1,5,1,258,1,139.4511,49.6629,195.6468,3,2,1,3,1,0,0,195.6468,174.6155,1.0334,-21.0313,10,
114,1,5,1,259,0,225.566,315.3581,197.9051,0,0,0,1,0,0,0,225.566,210.0864,1.3584,-15.4796,20,
114,1,5,1,260,1,19.5103,78.3466,135.8569,3,2,1,3,1,0,0,135.8569,146.8592,1.3335,11.0023,30,
114,1,5,1,261,0,76.506,47.9148,285.5384,0,0,0,2,0,0,0,47.9148,39.6631,1.0918,-8.2517,30,
114,1,5,1,262,0,108.7769,168.2008,346.5331,0,0,0,3,0,0,0,346.5331,332.4975,0.94168,-14.0356,20,
114,1,5,1,263,1,16.8902,109.4934,138.9438,3,2,1,3,1,0,0,138.9438,129.7996,2.5585,-9.1442,30,
114,1,5,1,264,0,78.1704,347.7574,258.8614,0,0,0,2,0,0,0,347.7574,347.6516,5.2919,-0.10583,40,
114,1,5,1,265,1,258.6754,49.5882,15.153,2,1,3,2,1,0,0,49.5882,32.1819,2.0334,-17.4063,20,
114,1,5,1,266,1,139.4723,165.3628,108.1772,3,1,2,2,0,0,1,165.3628,148.1414,1.0834,-17.2214,20,
114,1,5,1,267,0,287.6335,48.4547,345.2733,0,0,0,2,0,0,0,48.4547,28.7225,1.2334,-19.7322,20,
114,1,5,1,268,0,79.5617,109.5881,228.0927,0,0,0,1,0,0,0,79.5617,219.0364,2.3418,139.4747,0,
114,1,5,1,269,0,256.2028,226.4117,78.9937,0,0,0,2,0,0,0,226.4117,241.5895,1.6334,15.1778,20,
114,1,5,1,270,1,195.7787,347.0457,228.4683,1,2,3,1,1,0,0,195.7787,204.5163,1.0168,8.7375,30,
114,1,5,1,271,0,196.4051,228.0945,166.1022,0,0,0,3,0,0,0,166.1022,171.4429,1.7668,5.3407,30,
114,1,5,1,272,1,106.9624,45.3351,198.8926,3,2,1,3,1,0,0,198.8926,201.2919,1.7667,2.3993,40,
114,1,5,1,273,1,319.0539,287.8236,165.2784,2,3,1,1,0,0,1,319.0539,329.3602,1.8,10.3063,30,
114,1,5,1,274,0,347.212,197.3353,135.0519,0,0,0,2,0,0,0,197.3353,180.3713,1.6084,-16.964,20,
114,1,5,1,275,1,197.5864,138.251,169.3563,3,2,1,3,1,0,0,169.3563,157.7099,1.6751,-11.6464,30,
114,1,5,1,276,1,78.3333,196.916,348.4661,2,3,1,2,1,0,0,196.916,177.1009,1.4001,-19.8151,20,
114,1,5,1,277,1,345.5161,229.0877,19.9005,2,3,1,2,1,0,0,229.0877,220.4297,1.3917,-8.658,30,
114,1,5,1,278,1,137.058,255.2561,106.5764,1,3,2,1,1,0,0,137.058,149.5243,1.0751,12.4663,20,
114,1,5,1,279,1,316.2382,79.9271,105.6379,1,3,2,1,1,0,0,316.2382,334.5312,1.8334,18.2929,20,
114,1,5,1,280,0,229.4108,349.2476,197.8437,0,0,0,3,0,0,0,197.8437,169.9933,1.8418,-27.8504,10,
114,1,5,1,281,1,229.4693,315.8155,49.9449,2,1,3,3,0,0,1,49.9449,39.6815,1.3001,-10.2634,30,
114,1,5,1,282,0,227.5872,18.508,255.2254,0,0,0,1,0,0,0,227.5872,214.237,1.0834,-13.3502,20,
114,1,5,1,283,0,315.497,78.0433,109.0218,0,0,0,2,0,0,0,78.0433,76.2625,0.99169,-1.7809,40,
114,1,5,1,284,1,18.7949,169.6158,289.3606,1,2,3,2,0,1,0,169.6158,161.7747,1.3833,-7.8411,30,
114,1,5,1,285,1,199.3241,45.7012,348.2857,2,3,1,1,0,0,1,199.3241,187.6988,0.76677,-11.6253,30,
114,1,5,1,286,1,288.9333,195.5999,77.0599,1,3,2,1,1,0,0,288.9333,304.4548,1.9585,15.5216,20,
114,1,5,1,287,1,107.9219,47.6928,319.9534,1,2,3,1,1,0,0,107.9219,125.1948,1.3416,17.2729,20,
114,1,5,1,288,0,138.8452,256.7315,319.8373,0,0,0,1,0,0,0,138.8452,141.3067,1.3,2.4616,40,
114,1,5,1,289,1,78.9467,46.7546,196.1009,3,2,1,3,1,0,0,196.1009,182.9661,1.6251,-13.1348,20,
114,1,5,1,290,1,346.2992,48.4378,77.1625,2,1,3,2,1,0,0,48.4378,71.0634,1.6334,22.6256,10,
114,1,5,1,291,0,47.5361,168.0629,318.4329,0,0,0,2,0,0,0,168.0629,155.1909,1.4752,-12.872,20,
114,1,5,1,292,1,15.2567,229.1158,105.1847,1,3,2,1,1,0,0,15.2567,8.8095,1.3,-6.4472,30,
114,1,5,1,293,1,285.3355,346.8281,19.945,2,3,1,2,1,0,0,346.8281,345.1694,1.3417,-1.6588,40,
114,1,5,1,294,0,257.6577,228.2202,197.0375,0,0,0,3,0,0,0,197.0375,182.0444,1.55,-14.9931,20,
114,1,5,1,295,0,199.4218,139.4775,15.3904,0,0,0,3,0,0,0,15.3904,2.609,1.3417,-12.7814,20,
114,1,5,1,296,0,45.5671,195.2449,226.3806,0,0,0,3,0,0,0,226.3806,197.0237,1.2168,-29.3569,10,
114,1,5,1,297,1,349.7923,108.436,166.3002,2,1,3,2,1,0,0,108.436,134.8325,1.3667,26.3966,10,
114,1,5,1,298,1,316.3041,199.2829,227.7306,1,2,3,3,0,0,1,227.7306,207.7095,1,-20.0211,20,
114,1,5,1,299,1,195.2795,46.0652,78.8827,2,3,1,2,1,0,0,46.0652,38.185,1.1084,-7.8802,30,
114,1,5,1,300,1,315.0698,346.9085,289.5356,2,3,1,2,1,0,0,346.9085,353.6433,1.6585,6.7348,30,
114,1,6,1,301,0,79.7841,319.5073,168.5029,0,0,0,3,0,0,0,168.5029,157.2158,1.3667,-11.2871,30,
114,1,6,1,302,1,109.2112,169.8573,285.7143,1,2,3,2,0,1,0,169.8573,152.2669,1.1251,-17.5905,20,
114,1,6,1,303,1,168.2753,226.9711,345.9674,2,1,3,2,1,0,0,226.9711,236.4218,1.3001,9.4507,30,
114,1,6,1,304,0,15.1918,169.2424,75.5724,0,0,0,1,0,0,0,15.1918,3.3302,1.2168,-11.8616,30,
114,1,6,1,305,1,18.2956,318.6955,346.8718,2,3,1,2,1,0,0,318.6955,328.3549,1.8083,9.6594,30,
114,1,6,1,306,1,289.9226,49.8966,138.096,1,3,2,2,0,0,1,49.8966,40.2018,2.2167,-9.6947,30,
114,1,6,1,307,1,345.7543,78.3395,316.6828,3,2,1,3,1,0,0,316.6828,314.0349,0.75838,-2.6478,40,
114,1,6,1,308,1,287.5451,135.1288,169.8776,1,2,3,1,1,0,0,287.5451,313.8556,1.4668,26.3105,10,
114,1,6,1,309,1,255.8467,108.1058,137.1231,2,1,3,3,0,0,1,137.1231,136.2539,1.3918,-0.86914,40,
114,1,6,1,310,1,288.4203,137.4371,106.7839,3,2,1,3,1,0,0,106.7839,104.2214,2.3334,-2.5626,40,
114,1,6,1,311,1,229.9133,197.8603,16.1625,3,2,1,1,0,0,1,229.9133,218.2212,1.8418,-11.6921,30,
114,1,6,1,312,1,256.8618,16.533,49.4882,2,1,3,2,1,0,0,16.533,15.461,1.6,-1.072,40,
114,1,6,1,313,0,105.2382,348.4136,317.3775,0,0,0,2,0,0,0,348.4136,6.1413,1.9751,17.7277,20,
114,1,6,1,314,0,46.5277,198.6016,289.2731,0,0,0,3,0,0,0,289.2731,297.8472,0.9501,8.5741,30,
114,1,6,1,315,0,76.2584,47.9057,229.0416,0,0,0,2,0,0,0,47.9057,44.6204,1.1001,-3.2854,30,
114,1,6,1,316,1,15.2076,226.9566,199.3315,2,3,1,3,0,1,0,199.3315,205.7336,1.7334,6.402,30,
114,1,6,1,317,1,105.538,18.4729,48.7088,2,3,1,2,1,0,0,18.4729,19.7614,1.4584,1.2885,40,
114,1,6,1,318,1,78.8217,168.5945,49.4033,3,2,1,1,0,0,1,78.8217,85.285,1.95,6.4634,30,
114,1,6,1,319,1,17.4996,137.615,255.098,3,1,2,3,1,0,0,255.098,224.1294,1.3001,-30.9686,0,
114,1,6,1,320,1,259.6594,195.4038,225.3495,3,1,2,3,1,0,0,225.3495,241.6941,1.275,16.3447,20,
114,1,6,1,321,1,138.7434,316.0323,258.3285,3,2,1,3,1,0,0,258.3285,267.5855,1.2168,9.257,30,
114,1,6,1,322,0,226.0773,136.1014,199.4504,0,0,0,3,0,0,0,199.4504,182.7941,1.4584,-16.6564,20,
114,1,6,1,323,1,106.6549,46.057,18.1284,1,3,2,1,1,0,0,106.6549,102.3341,1.3835,-4.3208,30,
114,1,6,1,324,1,75.7454,17.4716,229.2435,1,2,3,1,1,0,0,75.7454,66.7184,1.0668,-9.0269,30,
114,1,6,1,325,1,227.1365,106.384,169.8902,3,2,1,2,0,1,0,106.384,88.1274,1.5752,-18.2566,20,
114,1,6,1,326,0,136.7248,289.6397,225.1506,0,0,0,1,0,0,0,136.7248,156.6834,1.0334,19.9586,20,
114,1,6,1,327,1,226.6167,345.3252,106.8691,1,3,2,1,1,0,0,226.6167,215.2495,1.6001,-11.3672,30,
114,1,6,1,328,1,137.1461,196.9953,105.3165,1,2,3,2,0,1,0,196.9953,190.1468,1.125,-6.8485,30,
114,1,6,1,329,0,165.379,347.1849,316.3581,0,0,0,1,0,0,0,165.379,175.2174,1.175,9.8384,30,
114,1,6,1,330,1,198.6708,47.4609,167.0092,3,2,1,3,1,0,0,167.0092,135.3711,2.1168,-31.6381,0,
114,1,6,1,331,1,257.8686,48.9896,348.1638,3,1,2,3,1,0,0,348.1638,131.6603,1.2001,143.4965,0,
114,1,6,1,332,0,45.5781,76.0204,105.5813,0,0,0,3,0,0,0,105.5813,103.7342,1.8251,-1.8471,40,
114,1,6,1,333,1,135.3108,108.4758,285.0103,2,1,3,2,1,0,0,108.4758,108.8673,1.8502,0.39148,40,
114,1,6,1,334,0,227.9536,315.0231,15.1538,0,0,0,2,0,0,0,315.0231,332.906,1.9,17.8829,20,
114,1,6,1,335,0,49.2546,107.1262,77.872,0,0,0,1,0,0,0,49.2546,44.114,1.9335,-5.1406,30,
114,1,6,1,336,0,348.9192,315.0932,109.5136,0,0,0,2,0,0,0,315.0932,341.4973,1.2834,26.404,10,
114,1,6,1,337,0,17.6051,135.8951,258.0446,0,0,0,1,0,0,0,17.6051,5.4882,2.6335,-12.1169,20,
114,1,6,1,338,1,166.9995,199.6776,317.3812,1,3,2,1,1,0,0,166.9995,166.6917,1.1001,-0.30781,40,
114,1,6,1,339,1,135.6205,47.0353,285.3385,1,2,3,1,1,0,0,135.6205,146.8768,1.1417,11.2563,30,
114,1,6,1,340,0,109.7587,15.5682,75.5864,0,0,0,1,0,0,0,109.7587,127.1979,1.6751,17.4392,20,
114,1,6,1,341,0,15.0025,285.5097,106.8519,0,0,0,3,0,0,0,106.8519,111.8982,2.5001,5.0462,30,
114,1,6,1,342,1,138.1121,78.2913,105.8854,2,3,1,2,1,0,0,78.2913,78.5937,1.8084,0.30234,40,
114,1,6,1,343,1,287.1474,78.8986,166.9833,3,2,1,2,0,1,0,78.8986,69.8668,1.0002,-9.0318,30,
114,1,6,1,344,1,138.8128,289.8301,109.6494,1,3,2,1,1,0,0,138.8128,147.8963,1.9168,9.0834,30,
114,1,6,1,345,1,48.0687,106.7289,228.6132,2,1,3,1,0,1,0,48.0687,43.2035,1.4917,-4.8652,30,
114,1,6,1,346,1,16.059,46.6451,78.8117,1,3,2,2,0,0,1,46.6451,38.117,1.025,-8.5281,30,
114,1,6,1,347,1,319.6437,347.9149,165.0771,3,1,2,3,1,0,0,165.0771,169.4156,1.3834,4.3386,30,
114,1,6,1,348,1,49.2638,197.4076,16.3615,3,1,2,1,0,1,0,49.2638,38.7521,1.4003,-10.5117,30,
114,1,6,1,349,1,168.5688,105.5118,137.2364,3,1,2,3,1,0,0,137.2364,146.7342,1.7419,9.4978,30,
114,1,6,1,350,0,256.5323,289.1405,199.0395,0,0,0,3,0,0,0,199.0395,205.0484,1.4667,6.009,30,
114,1,6,1,351,1,289.3933,257.0109,317.8066,3,1,2,3,1,0,0,317.8066,322.1831,0.98331,4.3765,30,
114,1,6,1,352,0,45.738,169.6035,199.6473,0,0,0,1,0,0,0,45.738,36.5588,1.9251,-9.1792,30,
114,1,6,1,353,0,75.9207,225.0509,15.4296,0,0,0,1,0,0,0,75.9207,54.7728,1.5917,-21.1479,10,
114,1,6,1,354,0,166.8589,226.9144,46.2815,0,0,0,2,0,0,0,226.9144,206.7183,2.5417,-20.196,20,
114,1,6,1,355,0,255.2989,138.0798,107.8197,0,0,0,1,0,0,0,255.2989,223.2086,1.0167,-32.0902,0,
114,1,6,1,356,1,288.9209,349.9041,78.4497,3,2,1,3,1,0,0,78.4497,75.8499,1.3334,-2.5998,40,
114,1,6,1,357,0,228.5225,288.6814,78.2834,0,0,0,1,0,0,0,228.5225,212.9268,1.4167,-15.5957,20,
114,1,6,1,358,0,258.4428,139.2845,199.5032,0,0,0,3,0,0,0,199.5032,201.1443,1.4585,1.6411,40,
114,1,6,1,359,1,75.109,109.102,226.4375,1,3,2,1,1,0,0,75.109,96.0528,1.7418,20.9438,20,
114,1,6,1,360,1,228.5207,257.1121,199.7893,1,2,3,3,0,0,1,199.7893,200.017,1.1002,0.22773,40,
114,1,7,2,361,1,348.6401,108.1069,135.629,1,3,2,2,0,0,1,108.1069,129.4507,1.1834,21.3438,10,
114,1,7,2,362,0,165.9707,77.9004,136.2374,0,0,0,3,0,0,0,136.2374,129.9748,1.4,-6.2626,30,
114,1,7,2,363,1,229.1241,195.9179,256.9655,2,3,1,1,0,0,1,229.1241,211.2139,1.0584,-17.9101,20,
114,1,7,2,364,0,165.5695,109.6809,78.4418,0,0,0,2,0,0,0,109.6809,119.9807,1.2083,10.2998,30,
114,1,7,2,365,1,166.3811,318.0762,16.4743,3,2,1,3,1,0,0,16.4743,6.251,1.3668,-10.2233,30,
114,1,7,2,366,0,315.405,165.8073,195.459,0,0,0,1,0,0,0,315.405,328.1855,1.8583,12.7805,20,
114,1,7,2,367,1,109.6495,47.4527,18.9816,1,2,3,2,0,1,0,47.4527,NaN,100000,999,0,
114,1,7,2,368,1,315.9086,169.1649,17.0315,3,1,2,2,0,0,1,169.1649,147.0278,1.2334,-22.137,10,
114,1,7,2,369,1,107.3031,169.6046,349.4309,3,1,2,3,1,0,0,349.4309,339.1289,1.4083,-10.302,30,
114,1,7,2,370,1,108.4366,228.0565,165.4117,2,1,3,2,1,0,0,228.0565,226.8692,1.4667,-1.1873,40,
114,1,7,2,371,1,316.0868,15.5768,45.4294,3,2,1,3,1,0,0,45.4294,23.0015,1.4417,-22.4278,10,
114,1,7,2,372,1,169.7511,317.414,197.1645,1,2,3,1,1,0,0,169.7511,166.5161,0.90828,-3.235,30,
114,1,7,2,373,1,135.5719,46.7905,318.9267,2,1,3,2,1,0,0,46.7905,43.9531,1.2418,-2.8374,40,
114,1,7,2,374,0,346.8346,19.0539,319.4885,0,0,0,1,0,0,0,346.8346,353.7178,1.8084,6.8832,30,
114,1,7,2,375,0,45.1252,77.8716,18.6469,0,0,0,1,0,0,0,45.1252,46.3652,3.2668,1.24,40,
114,1,7,2,376,1,317.5322,107.8856,259.3953,1,3,2,1,1,0,0,317.5322,313.8848,2.8084,-3.6474,30,
114,1,7,2,377,1,76.9089,199.9239,16.0256,1,3,2,2,0,0,1,199.9239,177.6311,2.3336,-22.2927,10,
114,1,7,2,378,0,345.0754,165.4797,78.9348,0,0,0,2,0,0,0,165.4797,169.1926,1.2334,3.713,30,
114,1,7,2,379,1,109.1753,197.4117,135.2972,3,2,1,3,1,0,0,135.2972,140.9934,1.8833,5.6962,30,
114,1,7,2,380,1,196.7345,169.6713,346.8693,3,1,2,3,1,0,0,346.8693,337.4794,1.1916,-9.3898,30,
114,1,7,2,381,1,107.2397,46.175,135.3356,3,2,1,3,1,0,0,135.3356,137.7718,2.1668,2.4362,40,
114,1,7,2,382,0,226.7344,348.1009,317.1787,0,0,0,2,0,0,0,348.1009,348.9189,1.175,0.81796,40,
114,1,7,2,383,0,195.1111,168.29,137.2932,0,0,0,3,0,0,0,137.2932,140.6113,1.2168,3.3181,30,
114,1,7,2,384,1,347.3584,46.9958,19.5556,1,3,2,3,0,1,0,19.5556,NaN,100000,999,0,
114,1,7,2,385,0,319.1758,109.2633,258.2195,0,0,0,3,0,0,0,258.2195,263.1755,1.4833,4.9561,30,
114,1,7,2,386,0,197.0324,288.9135,137.166,0,0,0,1,0,0,0,197.0324,193.0677,1.2251,-3.9647,30,
114,1,7,2,387,0,348.7326,75.5152,105.2421,0,0,0,1,0,0,0,348.7326,349.7966,2.2418,1.064,40,
114,1,7,2,388,1,77.205,226.647,167.8605,2,3,1,2,1,0,0,226.647,245.8823,1.575,19.2352,20,
114,1,7,2,389,1,345.8717,259.7531,79.8875,1,2,3,2,0,1,0,259.7531,NaN,100000,999,0,
114,1,7,2,390,1,285.5664,17.3066,228.5932,2,3,1,1,0,0,1,285.5664,272.3291,1.4501,-13.2373,20,
114,1,7,2,391,1,196.333,165.6764,255.3885,2,3,1,1,0,0,1,196.333,191.8296,1.025,-4.5033,30,
114,1,7,2,392,0,106.7317,169.8031,346.5066,0,0,0,2,0,0,0,169.8031,166.2795,1.2418,-3.5236,30,
114,1,7,2,393,1,136.2231,17.9134,225.2637,3,2,1,3,1,0,0,225.2637,215.9914,1.1083,-9.2723,30,
114,1,7,2,394,1,48.0304,138.6822,108.5663,1,2,3,1,1,0,0,48.0304,33.1995,1.9416,-14.8309,20,
114,1,7,2,395,1,135.9702,318.1324,228.1037,3,1,2,3,1,0,0,228.1037,215.617,1.3001,-12.4867,20,
114,1,7,2,396,1,165.2446,15.5411,79.2915,3,2,1,3,1,0,0,79.2915,58.7198,2.2668,-20.5717,20,
114,1,7,2,397,0,285.1272,199.8929,135.661,0,0,0,1,0,0,0,285.1272,276.8395,3.6336,-8.2877,30,
114,1,7,2,398,1,108.6478,317.4935,257.7333,1,3,2,3,0,1,0,257.7333,NaN,100000,999,0,
114,1,7,2,399,1,47.793,198.7833,229.8796,3,2,1,1,0,0,1,47.793,37.8059,1.4416,-9.9871,30,
114,1,7,2,400,0,16.5286,198.8272,226.2644,0,0,0,3,0,0,0,226.2644,218.4496,1.7918,-7.8148,30,
114,1,7,2,401,0,257.3597,48.9807,169.3782,0,0,0,1,0,0,0,257.3597,244.0363,1.3334,-13.3235,20,
114,1,7,2,402,1,226.0922,49.7603,76.8113,2,3,1,3,0,1,0,76.8113,NaN,100000,999,0,
114,1,7,2,403,0,227.4851,346.4198,105.371,0,0,0,3,0,0,0,105.371,80.6909,1.6084,-24.6801,10,
114,1,7,2,404,1,256.8705,46.0809,17.8801,1,2,3,1,1,0,0,256.8705,231.6419,1.1751,-25.2286,10,
114,1,7,2,405,1,15.124,49.5563,345.74,1,3,2,1,1,0,0,15.124,7.5391,1.5251,-7.5849,30,
114,1,7,2,406,0,259.4542,17.9429,105.8129,0,0,0,2,0,0,0,17.9429,23.4014,1.2917,5.4585,30,
114,1,7,2,407,1,16.7648,199.979,316.8248,3,2,1,3,1,0,0,316.8248,339.4164,1.3334,22.5916,10,
114,1,7,2,408,0,49.1793,317.9413,226.8173,0,0,0,1,0,0,0,49.1793,38.9474,2.0001,-10.2319,30,
114,1,7,2,409,0,135.3203,49.2732,19.8723,0,0,0,3,0,0,0,19.8723,5.8694,1.9251,-14.0029,20,
114,1,7,2,410,1,348.9881,196.8402,165.0757,1,2,3,1,1,0,0,348.9881,345.3553,1.5168,-3.6328,30,
114,1,7,2,411,0,169.6561,48.0783,106.2914,0,0,0,2,0,0,0,48.0783,29.921,1.0501,-18.1573,20,
114,1,7,2,412,1,259.3564,318.0681,106.3572,2,1,3,2,1,0,0,318.0681,327.3337,1.7668,9.2656,30,
114,1,7,2,413,0,48.6716,136.6975,346.5138,0,0,0,2,0,0,0,136.6975,133.0887,1.3083,-3.6088,30,
114,1,7,2,414,0,46.251,18.0135,228.1273,0,0,0,2,0,0,0,18.0135,26.2473,1.1584,8.2338,30,
114,1,7,2,415,0,18.6461,228.4192,138.2071,0,0,0,2,0,0,0,228.4192,206.6714,1.7668,-21.7478,10,
114,1,7,2,416,1,137.01,78.9045,259.1961,1,2,3,2,0,1,0,78.9045,NaN,100000,999,0,
114,1,7,2,417,0,228.0223,256.9172,107.7524,0,0,0,2,0,0,0,256.9172,253.264,1.6168,-3.6532,30,
114,1,7,2,418,1,77.5213,136.8426,18.4262,1,2,3,1,1,0,0,77.5213,106.6742,1.4167,29.1529,10,
114,1,7,2,419,0,45.0179,257.1253,16.1217,0,0,0,2,0,0,0,257.1253,255.6481,1.8335,-1.4772,40,
114,1,7,2,420,1,167.9834,315.0926,139.666,2,3,1,2,1,0,0,315.0926,330.4109,1.7585,15.3183,20,
114,1,8,2,421,1,19.4819,349.1117,259.4139,1,2,3,3,0,0,1,259.4139,248.4502,1.2917,-10.9637,30,
114,1,8,2,422,1,226.2781,19.858,77.9056,1,2,3,1,1,0,0,226.2781,211.5354,1.1501,-14.7427,20,
114,1,8,2,423,0,45.6067,75.203,349.4397,0,0,0,1,0,0,0,45.6067,27.4806,1.3668,-18.1261,20,
114,1,8,2,424,0,108.7988,198.075,135.7603,0,0,0,1,0,0,0,108.7988,128.8996,1.0333,20.1009,20,
114,1,8,2,425,1,347.5489,78.1367,19,2,3,1,1,0,0,1,347.5489,349.9925,2.8501,2.4436,40,
114,1,8,2,426,1,258.037,49.9834,195.2119,1,2,3,1,1,0,0,258.037,259.0436,1.1751,1.0067,40,
114,1,8,2,427,1,229.2602,15.4968,257.9889,1,3,2,1,1,0,0,229.2602,238.0742,1.2166,8.8141,30,
114,1,8,2,428,0,345.1878,285.5768,259.0935,0,0,0,2,0,0,0,285.5768,307.2977,1.5918,21.7208,10,
114,1,8,2,429,0,107.8684,347.4155,47.1081,0,0,0,1,0,0,0,107.8684,130.2776,1.775,22.4092,10,
114,1,8,2,430,0,196.8805,76.0165,165.8958,0,0,0,3,0,0,0,165.8958,146.5245,1.6084,-19.3713,20,
114,1,8,2,431,0,259.979,135.0422,228.6642,0,0,0,2,0,0,0,135.0422,139.3549,1.2584,4.3127,30,
114,1,8,2,432,0,289.2735,346.0245,19.3018,0,0,0,2,0,0,0,346.0245,347.462,2.4167,1.4375,40,
114,1,8,2,433,1,348.6641,77.3639,16.9629,3,1,2,3,1,0,0,16.9629,23.5545,1.2251,6.5916,30,
114,1,8,2,434,1,139.7399,49.6835,109.9839,1,3,2,1,1,0,0,139.7399,156.5174,1.3834,16.7775,20,
114,1,8,2,435,0,258.7759,16.4223,166.0312,0,0,0,1,0,0,0,258.7759,209.9823,1.2751,-48.7937,0,
114,1,8,2,436,1,285.3578,135.942,106.6778,1,2,3,3,0,0,1,106.6778,106.3116,1.875,-0.36626,40,
114,1,8,2,437,0,287.168,75.6769,166.078,0,0,0,1,0,0,0,287.168,295.2501,3.9003,8.0821,30,
114,1,8,2,438,0,348.0378,45.3974,137.0769,0,0,0,2,0,0,0,45.3974,48.1071,1.1251,2.7098,40,
114,1,8,2,439,0,228.4184,79.442,138.5643,0,0,0,1,0,0,0,228.4184,216.8705,1.25,-11.548,30,
114,1,8,2,440,1,106.9983,77.2006,196.5481,2,3,1,2,1,0,0,77.2006,65.133,1.2918,-12.0676,20,
114,1,8,2,441,1,138.2049,259.8788,319.6033,3,2,1,3,1,0,0,319.6033,326.0383,1.3918,6.435,30,
114,1,8,2,442,1,16.7871,75.6814,169.0289,2,1,3,2,1,0,0,75.6814,59.7875,1.0417,-15.8938,20,
114,1,8,2,443,0,138.017,198.3382,169.3166,0,0,0,3,0,0,0,169.3166,141.4673,1.2167,-27.8494,10,
114,1,8,2,444,0,46.4313,349.1655,288.8512,0,0,0,3,0,0,0,288.8512,321.6669,2.0668,32.8156,0,
114,1,8,2,445,0,15.4099,286.8748,255.435,0,0,0,3,0,0,0,255.435,260.0373,0.99996,4.6022,30,
114,1,8,2,446,0,258.6654,107.634,76.3465,0,0,0,3,0,0,0,76.3465,79.0189,1.6835,2.6724,40,
114,1,8,2,447,1,108.6335,169.8065,228.7511,1,2,3,2,0,1,0,169.8065,NaN,100000,999,0,
114,1,8,2,448,1,16.72,286.1982,165.002,2,1,3,2,1,0,0,286.1982,305.7546,1.9751,19.5563,20,
114,1,8,2,449,0,168.6221,287.0458,139.9883,0,0,0,1,0,0,0,168.6221,167.8433,0.89172,-0.77878,40,
114,1,8,2,450,1,348.249,318.9504,75.3615,3,1,2,2,0,0,1,318.9504,326.0056,1.6502,7.0552,30,
114,1,8,2,451,0,47.0638,317.0801,197.3169,0,0,0,1,0,0,0,47.0638,38.4317,1.9001,-8.6322,30,
114,1,8,2,452,0,255.3488,319.3022,166.0419,0,0,0,1,0,0,0,255.3488,239.1233,1.3335,-16.2256,20,
114,1,8,2,453,1,286.5414,166.6602,19.658,1,2,3,3,0,0,1,19.658,11.5983,1.05,-8.0596,30,
114,1,8,2,454,0,48.7005,137.024,315.2571,0,0,0,3,0,0,0,315.2571,326.5439,3.1251,11.2868,30,
114,1,8,2,455,1,258.172,318.6573,285.7818,1,2,3,1,1,0,0,258.172,250.9275,1.95,-7.2444,30,
114,1,8,2,456,1,165.231,257.1094,286.7793,2,3,1,2,1,0,0,257.1094,259.9231,2.3168,2.8137,40,
114,1,8,2,457,1,227.6564,169.6851,256.6671,1,3,2,1,1,0,0,227.6564,225.84,1.1584,-1.8163,40,
114,1,8,2,458,0,107.2598,348.8097,288.1292,0,0,0,1,0,0,0,107.2598,122.7477,1.7668,15.488,20,
114,1,8,2,459,0,15.902,46.4852,199.1465,0,0,0,3,0,0,0,199.1465,203.7563,2.1917,4.6098,30,
114,1,8,2,460,1,168.8212,106.8982,197.2703,3,1,2,2,0,0,1,106.8982,123.4505,1.5416,16.5523,20,
114,1,8,2,461,1,137.7108,199.1513,166.5872,3,1,2,3,1,0,0,166.5872,159.846,1.4917,-6.7413,30,
114,1,8,2,462,0,137.9032,285.9225,347.4746,0,0,0,2,0,0,0,285.9225,306.7524,2.9417,20.8299,20,
114,1,8,2,463,1,196.5762,75.7709,106.9421,1,2,3,2,0,1,0,75.7709,NaN,100000,999,0,
114,1,8,2,464,1,285.3413,136.0661,78.8595,3,1,2,3,1,0,0,78.8595,78.508,2.2584,-0.35149,40,
114,1,8,2,465,0,108.3365,79.3563,165.9066,0,0,0,2,0,0,0,79.3563,81.627,1.1583,2.2707,40,
114,1,8,2,466,1,168.7508,348.7918,47.9178,2,3,1,3,0,1,0,47.9178,NaN,100000,999,0,
114,1,8,2,467,1,136.3524,348.8175,316.5929,1,2,3,1,1,0,0,136.3524,148.4464,0.98333,12.094,20,
114,1,8,2,468,1,75.5238,107.2228,287.4528,1,2,3,3,0,0,1,287.4528,288.7896,1.0082,1.3368,40,
114,1,8,2,469,1,108.5544,76.3167,166.4805,3,1,2,3,1,0,0,166.4805,158.4167,1.3836,-8.0639,30,
114,1,8,2,470,1,259.2464,105.2999,18.8336,3,1,2,3,1,0,0,18.8336,344.6076,1.2584,-34.226,0,
114,1,8,2,471,0,75.1583,345.7907,108.5985,0,0,0,1,0,0,0,75.1583,71.0862,2.4334,-4.0721,30,
114,1,8,2,472,0,138.904,195.9652,285.8697,0,0,0,1,0,0,0,138.904,165.0153,1.6084,26.1113,10,
114,1,8,2,473,1,199.5466,285.8034,138.6897,2,3,1,2,1,0,0,285.8034,295.2825,1.5668,9.4791,30,
114,1,8,2,474,1,45.596,168.2843,289.7366,3,2,1,3,1,0,0,289.7366,306.5757,1.0418,16.8391,20,
114,1,8,2,475,0,47.2486,259.3221,289.7698,0,0,0,3,0,0,0,289.7698,289.0764,1.5668,-0.69338,40,
114,1,8,2,476,1,259.3878,105.4648,79.6492,1,3,2,1,1,0,0,259.3878,252.1653,1.1667,-7.2225,30,
114,1,8,2,477,1,77.187,227.5914,47.8009,2,1,3,3,0,0,1,47.8009,38.202,1.6168,-9.5989,30,
114,1,8,2,478,0,197.6277,46.1462,135.2819,0,0,0,3,0,0,0,135.2819,130.0298,2.5751,-5.2522,30,
114,1,8,2,479,0,139.1133,197.1161,345.5079,0,0,0,2,0,0,0,197.1161,239.8872,1.7167,42.7711,0,
114,1,8,2,480,0,17.8186,46.5734,105.7283,0,0,0,3,0,0,0,105.7283,107.9201,1.4251,2.1917,40,
