Subject,Session,Block,Condition,Trial,whetherCued,leftStim,rightStim,midStim,remCueLoc,fogCueLoc,neutralCueLoc,probeCueLoc,probeRem,probeForget,probeNeutral,Target,Estimate,RT,Error,Points
117,1,1,1,1,0,136.1214,256.3453,18.3652,0,0,0,2,0,0,0,256.3453,267.8239,1.4932,11.4786,30,
117,1,1,1,2,0,289.4795,225.4954,105.2208,0,0,0,1,0,0,0,289.4795,254.3934,1.1106,-35.0861,0,
117,1,1,1,3,1,347.5064,287.1586,109.9878,2,1,3,2,1,0,0,287.1586,91.879,1.2637,164.7204,0,
117,1,1,1,4,0,348.6529,108.2324,289.1658,0,0,0,1,0,0,0,348.6529,256.2665,1.4373,-92.3865,0,
117,1,1,1,5,1,107.4617,228.4737,289.8637,3,2,1,3,1,0,0,289.8637,261.5488,1.3675,-28.3149,10,
117,1,1,1,6,1,138.3022,255.2378,226.7439,2,3,1,1,0,0,1,138.3022,86.6047,1.3821,-51.6974,0,
117,1,1,1,7,1,197.5189,257.448,49.3852,3,1,2,3,1,0,0,49.3852,245.8482,0.82635,-163.5371,0,
117,1,1,1,8,1,105.0963,165.4194,19.874,1,2,3,1,1,0,0,105.0963,266.9034,0.89575,161.8071,0,
117,1,1,1,9,0,349.6502,286.9951,105.237,0,0,0,1,0,0,0,349.6502,355.564,2.965,5.9138,30,
117,1,1,1,10,0,259.389,197.9122,285.3534,0,0,0,1,0,0,0,259.389,89.7387,0.99992,-169.6503,0,
117,1,1,1,11,1,317.5194,78.234,226.5387,2,1,3,2,1,0,0,78.234,82.3024,1.1319,4.0684,30,
117,1,1,1,12,1,226.4331,199.0041,19.4806,2,1,3,2,1,0,0,199.0041,65.0887,0.868,-133.9154,0,
117,1,1,1,13,1,199.1477,319.2454,226.8627,1,2,3,1,1,0,0,199.1477,272.1746,1.2012,73.027,0,
117,1,1,1,14,1,198.7837,137.0852,229.8589,1,2,3,2,0,1,0,137.0852,279.5758,1.9582,142.4906,0,
117,1,1,1,15,1,317.252,136.0284,79.4983,1,2,3,3,0,0,1,79.4983,268.3406,1.0348,-171.1577,0,
117,1,1,1,16,0,166.9501,227.4895,288.474,0,0,0,1,0,0,0,166.9501,175.6331,0.75692,8.6829,30,
117,1,1,1,17,0,255.5852,109.0734,346.6243,0,0,0,3,0,0,0,346.6243,89.8239,1.9443,103.1996,0,
117,1,1,1,18,1,19.1594,45.6717,75.3023,2,3,1,2,1,0,0,45.6717,58.9294,0.89575,13.2577,20,
117,1,1,1,19,1,139.9843,17.7677,197.5773,1,2,3,1,1,0,0,139.9843,181.4751,2.8331,41.4909,0,
117,1,1,1,20,1,169.6556,105.9539,16.2929,1,2,3,2,0,1,0,105.9539,58.9294,0.68055,-47.0245,0,
117,1,1,1,21,0,198.6008,256.7345,227.585,0,0,0,1,0,0,0,198.6008,181.4751,1.1249,-17.1257,20,
117,1,1,1,22,0,47.1514,228.4688,289.7261,0,0,0,2,0,0,0,228.4688,66.4057,0.74299,-162.0631,0,
117,1,1,1,23,0,288.3452,197.5011,346.09,0,0,0,1,0,0,0,288.3452,79.2885,0.8679,150.9433,0,
117,1,1,1,24,1,229.3193,135.4885,169.5403,3,2,1,1,0,0,1,229.3193,170.1805,0.82631,-59.1389,0,
117,1,1,1,25,1,137.5392,347.928,18.8144,1,2,3,1,1,0,0,137.5392,159.4028,0.88189,21.8636,10,
117,1,1,1,26,0,17.7694,108.4003,196.8359,0,0,0,2,0,0,0,108.4003,61.1065,0.53417,-47.2938,0,
117,1,1,1,27,1,135.7013,16.3007,195.4341,3,2,1,3,1,0,0,195.4341,298.4145,1.0341,102.9804,0,
117,1,1,1,28,1,346.1034,285.0065,135.9459,1,2,3,2,0,1,0,285.0065,57.6669,1.5694,132.6604,0,
117,1,1,1,29,0,105.3418,17.1816,75.8693,0,0,0,1,0,0,0,105.3418,117.3538,0.9929,12.012,20,
117,1,1,1,30,1,166.1401,16.8543,319.4546,2,3,1,2,1,0,0,16.8543,29.3362,1.0693,12.4819,20,
117,1,1,1,31,1,347.6621,78.5825,225.8965,2,3,1,1,0,0,1,347.6621,346.4161,1.4651,-1.2461,40,
117,1,1,1,32,1,169.6783,319.0936,48.6413,1,3,2,1,1,0,0,169.6783,168.964,1.1387,-0.71433,40,
117,1,1,1,33,1,108.812,17.8803,78.7383,3,1,2,3,1,0,0,78.7383,263.1641,1.1735,-175.5742,0,
117,1,1,1,34,1,347.6614,136.397,49.7312,2,3,1,2,1,0,0,136.397,107.5371,1.0145,-28.8599,10,
117,1,1,1,35,0,78.6346,196.8692,47.9079,0,0,0,2,0,0,0,196.8692,271.8547,1.5763,74.9855,0,
117,1,1,1,36,0,45.7597,16.9855,196.8736,0,0,0,3,0,0,0,196.8736,7.6769,1.4582,170.8033,0,
117,1,1,1,37,1,138.2116,316.1063,79.1853,2,1,3,2,1,0,0,316.1063,299.7902,1.2013,-16.3162,20,
117,1,1,1,38,0,319.2929,289.5553,168.4982,0,0,0,3,0,0,0,168.4982,115.1692,1.7707,-53.329,0,
117,1,1,1,39,1,287.6468,199.1499,49.2938,3,1,2,2,0,0,1,199.1499,331.4907,1.2707,132.3408,0,
117,1,1,1,40,1,169.2518,139.5582,198.1964,1,3,2,1,1,0,0,169.2518,176.726,1.1665,7.4742,30,
117,1,1,1,41,1,169.1329,48.3844,286.038,3,2,1,3,1,0,0,286.038,290.3012,0.95126,4.2632,30,
117,1,1,1,42,1,287.2569,316.9132,48.9482,2,1,3,2,1,0,0,316.9132,310.6632,1.4519,-6.25,30,
117,1,1,1,43,0,228.7938,349.9761,315.9329,0,0,0,3,0,0,0,315.9329,340.1397,0.97214,24.2069,10,
117,1,1,1,44,1,285.9688,47.1618,258.7458,2,1,3,2,1,0,0,47.1618,46.9267,1.4443,-0.23514,40,
117,1,1,1,45,0,19.6749,137.3974,346.159,0,0,0,2,0,0,0,137.3974,42.1642,1.1249,-95.2333,0,
117,1,1,1,46,1,287.6548,259.506,317.7028,2,1,3,2,1,0,0,259.506,70.0985,0.59028,170.5924,0,
117,1,1,1,47,0,105.9911,165.9754,316.6342,0,0,0,3,0,0,0,316.6342,121.8175,1.3472,165.1833,0,
117,1,1,1,48,1,109.0699,259.4922,77.1462,3,1,2,1,0,1,0,109.0699,111.7244,1.1318,2.6545,40,
117,1,1,1,49,1,315.4649,347.3174,285.0467,1,2,3,1,1,0,0,315.4649,118.5442,0.79854,163.0793,0,
117,1,1,1,50,0,77.1828,225.2461,105.2482,0,0,0,1,0,0,0,77.1828,358.6575,2.0209,-78.5253,0,
117,1,1,1,51,1,17.3062,228.1966,259.5867,2,3,1,2,1,0,0,228.1966,250.3278,1.8332,22.1312,10,
117,1,1,1,52,1,19.9049,195.6352,286.1612,1,3,2,1,1,0,0,19.9049,192.095,0.95122,172.1901,0,
117,1,1,1,53,0,19.2845,75.217,318.4581,0,0,0,2,0,0,0,75.217,59.9797,1.0624,-15.2373,20,
117,1,1,1,54,1,79.095,348.1246,228.6928,3,2,1,3,1,0,0,228.6928,243.6987,1.1388,15.0058,20,
117,1,1,1,55,1,49.4771,227.9126,257.9137,1,3,2,1,1,0,0,49.4771,58.5312,1.1458,9.054,30,
117,1,1,1,56,1,47.0319,136.931,228.049,2,1,3,3,0,0,1,228.049,75.3649,1.3748,-152.6841,0,
117,1,1,1,57,1,77.6151,16.6265,49.1592,2,3,1,2,1,0,0,16.6265,39.4007,0.79165,22.7742,10,
117,1,1,1,58,0,137.6428,345.2572,78.7844,0,0,0,2,0,0,0,345.2572,335.1272,1.4866,-10.13,30,
117,1,1,1,59,0,168.7425,317.7165,226.6907,0,0,0,2,0,0,0,317.7165,326.9443,1.6387,9.2278,30,
117,1,1,1,60,1,315.1258,197.0721,138.657,2,1,3,3,0,0,1,138.657,158.3361,1.3817,19.6791,20,
117,1,2,1,61,0,315.8145,169.192,195.8378,0,0,0,3,0,0,0,195.8378,169.0399,1.6661,-26.7979,10,
117,1,2,1,62,0,109.7017,135.0292,228.0515,0,0,0,2,0,0,0,135.0292,142.5994,0.89577,7.5702,30,
117,1,2,1,63,1,256.4523,47.0128,289.3103,1,3,2,3,0,1,0,289.3103,104.3621,1.5554,175.0519,0,
117,1,2,1,64,1,319.2054,76.7725,167.1503,1,3,2,2,0,0,1,76.7725,273.2312,1.3952,-163.5413,0,
117,1,2,1,65,1,289.8173,135.4295,167.5025,3,2,1,3,1,0,0,167.5025,180.6852,0.86104,13.1827,20,
117,1,2,1,66,0,46.5193,197.4165,346.6891,0,0,0,1,0,0,0,46.5193,20.7288,1.3679,-25.7904,10,
117,1,2,1,67,0,79.9262,107.7974,169.668,0,0,0,2,0,0,0,107.7974,59.5354,1.3401,-48.262,0,
117,1,2,1,68,1,135.5422,165.1806,228.0905,2,1,3,2,1,0,0,165.1806,355.0191,0.66658,-170.1614,0,
117,1,2,1,69,0,259.4502,346.651,166.1485,0,0,0,1,0,0,0,259.4502,352.8507,1.472,93.4005,0,
117,1,2,1,70,0,135.5697,19.8928,79.243,0,0,0,3,0,0,0,79.243,45.4824,1.7915,-33.7606,0,
117,1,2,1,71,0,285.5402,17.2994,137.2544,0,0,0,3,0,0,0,137.2544,121.685,1.2986,-15.5694,20,
117,1,2,1,72,1,138.7045,347.534,165.9996,2,3,1,2,1,0,0,347.534,336.7219,1.0068,-10.8121,30,
117,1,2,1,73,1,169.3879,345.0718,46.4715,1,2,3,1,1,0,0,169.3879,163.8379,1.1527,-5.5499,30,
117,1,2,1,74,1,227.7164,78.5126,19.7822,2,1,3,2,1,0,0,78.5126,63.625,0.72909,-14.8877,20,
117,1,2,1,75,0,78.8751,319.5709,48.9128,0,0,0,2,0,0,0,319.5709,53.814,0.73606,94.2431,0,
117,1,2,1,76,0,48.4957,168.9813,137.2079,0,0,0,3,0,0,0,137.2079,82.6407,1.4027,-54.5672,0,
117,1,2,1,77,0,315.7287,287.9252,345.3668,0,0,0,3,0,0,0,345.3668,352.9455,1.0833,7.5787,30,
117,1,2,1,78,0,286.8252,226.5457,315.6046,0,0,0,1,0,0,0,286.8252,258.9571,1.4096,-27.8681,10,
117,1,2,1,79,1,256.6999,319.2336,46.2303,1,3,2,1,1,0,0,256.6999,251.1437,1.1666,-5.5562,30,
117,1,2,1,80,1,135.68,78.9445,105.462,2,1,3,1,0,1,0,135.68,68.464,1.1184,-67.216,0,
117,1,2,1,81,1,75.0988,319.8215,349.8519,2,3,1,2,1,0,0,319.8215,325.5683,1.3053,5.7468,30,
117,1,2,1,82,0,19.6916,226.2771,107.6658,0,0,0,2,0,0,0,226.2771,245.275,1.597,18.9979,20,
117,1,2,1,83,0,138.9798,226.1669,78.0042,0,0,0,2,0,0,0,226.1669,86.2289,1.5554,-139.938,0,
117,1,2,1,84,0,346.4868,16.9821,317.1038,0,0,0,3,0,0,0,317.1038,342.5457,1.0902,25.4419,10,
117,1,2,1,85,1,317.7541,79.3545,195.2113,1,2,3,2,0,1,0,79.3545,235.2987,1.9304,155.9442,0,
117,1,2,1,86,1,47.5997,169.9459,257.4496,3,2,1,1,0,0,1,47.5997,259.2488,1.7844,-148.3509,0,
117,1,2,1,87,1,79.0846,195.9474,105.6185,1,2,3,1,1,0,0,79.0846,52.9863,1.2013,-26.0983,10,
117,1,2,1,88,1,76.6599,319.1987,286.8586,3,2,1,1,0,0,1,76.6599,310.44,1.4727,-126.2199,0,
117,1,2,1,89,1,135.784,76.6302,46.5703,1,2,3,1,1,0,0,135.784,91.2132,0.69442,-44.5708,0,
117,1,2,1,90,0,286.0726,228.3995,167.7865,0,0,0,3,0,0,0,167.7865,177.9256,1.2013,10.1391,30,
117,1,2,1,91,1,287.0116,195.9092,139.2813,2,3,1,3,0,1,0,139.2813,200.5906,0.90263,61.3094,0,
117,1,2,1,92,1,225.9992,318.0367,107.7152,3,2,1,1,0,0,1,225.9992,37.8903,1.4097,171.8911,0,
117,1,2,1,93,1,48.791,169.4352,15.344,1,3,2,1,1,0,0,48.791,260.1944,0.80551,-148.5966,0,
117,1,2,1,94,0,16.9081,317.8384,169.4393,0,0,0,1,0,0,0,16.9081,21.8449,1.3679,4.9368,30,
117,1,2,1,95,1,139.6308,166.4925,256.6904,2,3,1,3,0,1,0,256.6904,85.833,1.2429,-170.8575,0,
117,1,2,1,96,1,346.3991,77.235,47.9379,1,2,3,1,1,0,0,346.3991,339.1373,1.0762,-7.2619,30,
117,1,2,1,97,1,349.442,316.1658,289.308,2,3,1,2,1,0,0,316.1658,339.2156,0.94393,23.0498,10,
117,1,2,1,98,0,287.6372,108.625,348.0371,0,0,0,2,0,0,0,108.625,116.6473,0.84024,8.0223,30,
117,1,2,1,99,0,349.0746,135.7025,259.3993,0,0,0,1,0,0,0,349.0746,335.9906,1.2568,-13.084,20,
117,1,2,1,100,0,15.4219,229.8604,285.1573,0,0,0,2,0,0,0,229.8604,49.6877,1.4512,179.8272,0,
117,1,2,1,101,0,318.2673,77.4483,349.8643,0,0,0,2,0,0,0,77.4483,61.7045,1.347,-15.7438,20,
117,1,2,1,102,0,287.6205,225.601,105.889,0,0,0,3,0,0,0,105.889,71.0151,1.6457,-34.8739,0,
117,1,2,1,103,1,77.9122,257.105,345.4603,1,3,2,1,1,0,0,77.9122,67.4748,0.77081,-10.4373,30,
117,1,2,1,104,1,15.8762,165.966,258.0821,1,3,2,1,1,0,0,15.8762,18.2626,0.93742,2.3865,40,
117,1,2,1,105,1,288.861,317.3768,18.4045,3,1,2,3,1,0,0,18.4045,208.9464,0.95131,-169.4581,0,
117,1,2,1,106,0,139.1315,79.956,197.6197,0,0,0,3,0,0,0,197.6197,60.735,1.2013,-136.8847,0,
117,1,2,1,107,1,317.3578,347.715,225.2985,2,3,1,2,1,0,0,347.715,343.6015,1.0693,-4.1135,30,
117,1,2,1,108,0,79.1667,256.0186,227.7221,0,0,0,2,0,0,0,256.0186,287.0191,1.2152,31.0006,0,
117,1,2,1,109,1,165.6614,49.3524,348.0148,2,3,1,1,0,0,1,165.6614,253.8734,1.4651,88.212,0,
117,1,2,1,110,1,76.8968,319.3234,17.0998,1,2,3,1,1,0,0,76.8968,77.4985,0.42363,0.6016,40,
117,1,2,1,111,0,349.1405,287.5372,16.8308,0,0,0,3,0,0,0,16.8308,355.2188,2.6178,-21.612,10,
117,1,2,1,112,0,167.8456,109.3752,136.7429,0,0,0,2,0,0,0,109.3752,68.407,0.52767,-40.9682,0,
117,1,2,1,113,0,17.3376,75.7067,45.3407,0,0,0,1,0,0,0,17.3376,169.0352,0.87495,151.6977,0,
117,1,2,1,114,1,346.2021,48.4245,319.1963,3,2,1,3,1,0,0,319.1963,344.3517,0.54153,25.1554,10,
117,1,2,1,115,0,316.9479,48.8765,285.8968,0,0,0,3,0,0,0,285.8968,318.4857,0.74993,32.5888,0,
117,1,2,1,116,0,169.6136,317.8213,17.1573,0,0,0,3,0,0,0,17.1573,346.391,1.2845,-30.7663,0,
117,1,2,1,117,1,79.9629,257.2792,17.1302,1,3,2,3,0,1,0,17.1302,331.7042,0.99289,-45.426,0,
117,1,2,1,118,1,348.4165,318.0428,46.0983,2,1,3,2,1,0,0,318.0428,314.3167,0.64578,-3.7261,30,
117,1,2,1,119,1,169.7606,319.8793,345.1546,1,2,3,1,1,0,0,169.7606,133.7843,1.1042,-35.9763,0,
117,1,2,1,120,1,196.2163,77.8571,319.9086,2,1,3,1,0,1,0,196.2163,349.3446,1.854,153.1283,0,
117,1,3,2,121,0,315.19,49.7712,258.7119,0,0,0,3,0,0,0,258.7119,246.421,0.97214,-12.2909,20,
117,1,3,2,122,1,256.3059,75.474,107.2548,2,3,1,2,1,0,0,75.474,81.4663,1.1943,5.9923,30,
117,1,3,2,123,1,46.3872,285.0305,346.8736,1,3,2,1,1,0,0,46.3872,37.5329,1.2498,-8.8543,30,
117,1,3,2,124,0,105.9184,319.3083,75.1632,0,0,0,2,0,0,0,319.3083,65.6302,0.76381,106.3219,0,
117,1,3,2,125,0,106.5588,195.2766,18.769,0,0,0,3,0,0,0,18.769,87.5266,1.3121,68.7576,0,
117,1,3,2,126,1,139.8817,17.9662,316.522,1,3,2,2,0,0,1,17.9662,46.7708,0.95129,28.8047,10,
117,1,3,2,127,1,108.4447,349.7301,229.3677,1,3,2,1,1,0,0,108.4447,106.1503,1.0347,-2.2944,40,
117,1,3,2,128,1,319.9646,15.8124,75.5678,3,1,2,3,1,0,0,75.5678,322.9465,0.7291,-112.6213,0,
117,1,3,2,129,1,317.5047,196.66,135.8694,2,3,1,2,1,0,0,196.66,204.9931,1.9026,8.3332,30,
117,1,3,2,130,1,287.6892,169.3546,108.6142,3,2,1,3,1,0,0,108.6142,103.6215,1.0416,-4.9927,30,
117,1,3,2,131,1,347.3686,289.756,46.2448,2,1,3,2,1,0,0,289.756,303.3372,1.2568,13.5812,20,
117,1,3,2,132,0,167.2609,19.246,46.9522,0,0,0,2,0,0,0,19.246,22.2322,1.0832,2.9862,40,
117,1,3,2,133,1,197.6056,138.8715,165.6013,2,3,1,2,1,0,0,138.8715,153.4422,1.0346,14.5706,20,
117,1,3,2,134,1,167.5071,256.385,287.6698,3,2,1,1,0,0,1,167.5071,160.9432,0.71512,-6.5639,30,
117,1,3,2,135,1,75.2679,196.8753,288.875,2,3,1,2,1,0,0,196.8753,151.1382,0.90961,-45.737,0,
117,1,3,2,136,1,197.5604,348.6066,259.6442,3,1,2,3,1,0,0,259.6442,253.6895,0.96512,-5.9547,30,
117,1,3,2,137,0,168.4379,109.9343,348.8497,0,0,0,3,0,0,0,348.8497,331.129,0.97221,-17.7207,20,
117,1,3,2,138,0,198.6208,258.0684,348.9148,0,0,0,2,0,0,0,258.0684,85.354,1.5415,-172.7144,0,
117,1,3,2,139,1,345.3642,288.7561,229.1559,1,2,3,1,1,0,0,345.3642,359.0434,1.4582,13.6793,20,
117,1,3,2,140,1,229.1626,289.9769,348.2488,3,2,1,1,0,0,1,229.1626,251.1024,1.2221,21.9398,10,
117,1,3,2,141,1,196.0322,256.693,137.8706,1,3,2,1,1,0,0,196.0322,355.4058,1.2776,159.3737,0,
117,1,3,2,142,1,137.2949,199.3049,318.3042,3,2,1,3,1,0,0,318.3042,329.267,0.87494,10.9628,30,
117,1,3,2,143,1,319.5075,166.5917,77.9854,3,2,1,3,1,0,0,77.9854,109.7172,1.3124,31.7318,0,
117,1,3,2,144,1,198.7463,49.2093,255.8344,2,3,1,2,1,0,0,49.2093,55.7349,0.69438,6.5256,30,
117,1,3,2,145,0,47.6562,169.7795,195.3334,0,0,0,3,0,0,0,195.3334,137.7932,1.1179,-57.5401,0,
117,1,3,2,146,1,285.7627,255.7778,345.4478,3,1,2,3,1,0,0,345.4478,325.4602,1.0139,-19.9876,20,
117,1,3,2,147,0,346.1715,287.3235,18.0969,0,0,0,1,0,0,0,346.1715,333.1133,0.99296,-13.0582,20,
117,1,3,2,148,0,286.6012,47.4647,76.1083,0,0,0,1,0,0,0,286.6012,340.6017,0.88891,54.0005,0,
117,1,3,2,149,1,169.9519,135.1685,257.1213,3,2,1,3,1,0,0,257.1213,244.2422,0.59717,-12.8791,20,
117,1,3,2,150,1,135.5186,76.8876,286.3143,1,3,2,1,1,0,0,135.5186,101.5445,0.88197,-33.9741,0,
117,1,3,2,151,1,136.9241,15.8132,228.9838,3,2,1,3,1,0,0,228.9838,228.881,1.0347,-0.1028,40,
117,1,3,2,152,1,256.3422,16.2905,47.405,2,1,3,1,0,1,0,256.3422,NaN,100000,999,0,
117,1,3,2,153,1,46.019,79.9667,135.4681,3,2,1,3,1,0,0,135.4681,34.5598,1.1319,-100.9083,0,
117,1,3,2,154,0,139.2935,49.6024,78.7542,0,0,0,3,0,0,0,78.7542,18.7669,0.90262,-59.9873,0,
117,1,3,2,155,0,287.1087,317.0566,79.7957,0,0,0,1,0,0,0,287.1087,353.7081,1.0074,66.5993,0,
117,1,3,2,156,1,108.3266,79.8213,348.3558,3,1,2,2,0,0,1,79.8213,99.0529,1.2361,19.2316,20,
117,1,3,2,157,1,75.3655,287.9028,346.4351,3,1,2,3,1,0,0,346.4351,357.7997,1.2986,11.3646,30,
117,1,3,2,158,1,198.7184,106.9255,16.2575,3,2,1,3,1,0,0,16.2575,352.6432,1.3748,-23.6143,10,
117,1,3,2,159,1,19.4394,316.2826,169.834,1,2,3,3,0,0,1,169.834,173.3349,1.4651,3.5009,30,
117,1,3,2,160,1,198.7854,49.4316,347.3611,1,2,3,2,0,1,0,49.4316,NaN,100000,999,0,
117,1,3,2,161,0,256.8834,287.5216,198.8175,0,0,0,3,0,0,0,198.8175,234.5445,1.2498,35.727,0,
117,1,3,2,162,0,15.4179,197.5633,289.1643,0,0,0,2,0,0,0,197.5633,178.836,1.7567,-18.7273,20,
117,1,3,2,163,0,225.9814,285.6068,317.7185,0,0,0,3,0,0,0,317.7185,331.415,1.3054,13.6965,20,
117,1,3,2,164,1,226.822,15.8574,348.9768,2,3,1,2,1,0,0,15.8574,19.6645,1.0902,3.8071,30,
117,1,3,2,165,0,108.4765,49.8046,227.7316,0,0,0,1,0,0,0,108.4765,177.7591,1.5346,69.2825,0,
117,1,3,2,166,1,139.2915,349.5471,169.8083,2,3,1,2,1,0,0,349.5471,12.0389,1.2567,22.4919,10,
117,1,3,2,167,1,317.665,166.6339,78.011,1,2,3,1,1,0,0,317.665,346.5161,1.486,28.8511,10,
117,1,3,2,168,0,45.8568,286.6499,19.8324,0,0,0,1,0,0,0,45.8568,338.2156,1.0278,-67.6412,0,
117,1,3,2,169,0,106.7704,226.3312,346.4575,0,0,0,1,0,0,0,106.7704,57.249,0.9374,-49.5214,0,
117,1,3,2,170,1,49.4181,287.1224,18.0363,2,3,1,2,1,0,0,287.1224,132.6403,0.81937,-154.4821,0,
117,1,3,2,171,0,17.7364,197.7674,108.1529,0,0,0,2,0,0,0,197.7674,205.6503,1.8331,7.8829,30,
117,1,3,2,172,0,345.4081,166.3724,229.3376,0,0,0,2,0,0,0,166.3724,138.2504,0.62493,-28.122,10,
117,1,3,2,173,0,198.8857,346.9197,288.5578,0,0,0,1,0,0,0,198.8857,199.6571,1.0271,0.7714,40,
117,1,3,2,174,0,285.827,225.908,348.4572,0,0,0,1,0,0,0,285.827,273.4587,0.95124,-12.3682,20,
117,1,3,2,175,0,165.0106,319.7555,18.8315,0,0,0,3,0,0,0,18.8315,3.3709,1.0346,-15.4606,20,
117,1,3,2,176,0,45.903,107.8665,75.8178,0,0,0,2,0,0,0,107.8665,78.5028,1.3194,-29.3637,10,
117,1,3,2,177,0,46.1465,285.9111,225.8318,0,0,0,3,0,0,0,225.8318,22.7343,0.95825,156.9026,0,
117,1,3,2,178,0,108.3036,169.7062,19.8785,0,0,0,2,0,0,0,169.7062,235.0841,2.097,65.3779,0,
117,1,3,2,179,1,259.2268,109.3944,138.7309,3,2,1,2,0,1,0,109.3944,NaN,100000,999,0,
117,1,3,2,180,1,17.2394,78.5482,169.7217,1,2,3,1,1,0,0,17.2394,214.933,0.88877,-162.3064,0,
117,1,4,2,181,1,228.2734,195.1307,18.9289,2,3,1,2,1,0,0,195.1307,162.5453,1.6452,-32.5854,0,
117,1,4,2,182,0,109.9695,258.0224,229.7245,0,0,0,3,0,0,0,229.7245,90.7585,1.3814,-138.966,0,
117,1,4,2,183,1,285.552,166.0832,199.0551,1,2,3,1,1,0,0,285.552,271.8706,0.99983,-13.6814,20,
117,1,4,2,184,0,108.221,255.3397,226.0396,0,0,0,3,0,0,0,226.0396,236.629,0.79168,10.5895,30,
117,1,4,2,185,1,319.6343,15.0415,79.1231,2,3,1,2,1,0,0,15.0415,348.6512,1.0138,-26.3903,10,
117,1,4,2,186,1,289.6135,166.6016,349.2877,2,3,1,2,1,0,0,166.6016,158.3138,1.0276,-8.2879,30,
117,1,4,2,187,1,135.0642,315.9331,77.4262,1,2,3,1,1,0,0,135.0642,111.6841,0.65273,-23.3801,10,
117,1,4,2,188,1,137.8393,227.1325,45.3812,1,2,3,1,1,0,0,137.8393,131.3773,1.007,-6.462,30,
117,1,4,2,189,0,169.7982,15.4454,288.9887,0,0,0,1,0,0,0,169.7982,168.9463,0.70828,-0.85197,40,
117,1,4,2,190,0,137.5494,76.9126,259.5274,0,0,0,2,0,0,0,76.9126,48.1003,1.3408,-28.8123,10,
117,1,4,2,191,1,345.9222,75.2283,289.4252,1,3,2,1,1,0,0,345.9222,179.5888,0.40971,-166.3334,0,
117,1,4,2,192,0,48.1135,105.3177,286.8675,0,0,0,2,0,0,0,105.3177,71.2032,0.80557,-34.1145,0,
117,1,4,2,193,1,76.7084,347.7434,17.3027,1,2,3,2,0,1,0,347.7434,NaN,100000,999,0,
117,1,4,2,194,1,257.1951,105.7453,195.1414,1,3,2,2,0,0,1,105.7453,153.1336,1.0902,47.3884,0,
117,1,4,2,195,1,317.404,105.3326,79.4889,1,3,2,1,1,0,0,317.404,273.0704,0.92344,-44.3336,0,
117,1,4,2,196,0,76.7007,169.5946,107.2813,0,0,0,1,0,0,0,76.7007,61.6585,1.0763,-15.0421,20,
117,1,4,2,197,1,347.9954,168.0078,108.2471,3,1,2,2,0,0,1,168.0078,153.447,1.1804,-14.5609,20,
117,1,4,2,198,0,136.8788,169.3173,286.4599,0,0,0,1,0,0,0,136.8788,169.8986,0.73597,33.0198,0,
117,1,4,2,199,0,196.4215,17.1766,229.5188,0,0,0,3,0,0,0,229.5188,332.763,0.95186,103.2442,0,
117,1,4,2,200,1,287.6707,136.834,196.8197,1,3,2,1,1,0,0,287.6707,106.0944,0.87495,178.4237,0,
117,1,4,2,201,1,229.9196,49.8989,16.2508,1,2,3,1,1,0,0,229.9196,89.416,1.2638,-140.5036,0,
117,1,4,2,202,1,195.0178,169.0762,228.1921,3,2,1,3,1,0,0,228.1921,171.0061,1.3055,-57.186,0,
117,1,4,2,203,0,257.3316,289.7577,49.825,0,0,0,3,0,0,0,49.825,10.1116,1.0416,-39.7134,0,
117,1,4,2,204,1,259.0554,288.5523,139.8512,2,1,3,3,0,0,1,139.8512,152.3593,0.97908,12.5081,20,
117,1,4,2,205,1,286.2257,165.3206,76.3157,1,3,2,1,1,0,0,286.2257,285.4932,1.1318,-0.73249,40,
117,1,4,2,206,1,315.0382,228.0546,17.0404,1,2,3,1,1,0,0,315.0382,267.3466,0.94438,-47.6916,0,
117,1,4,2,207,0,108.5521,168.4433,16.6047,0,0,0,2,0,0,0,168.4433,148.2581,0.93037,-20.1852,20,
117,1,4,2,208,1,75.8955,138.1723,319.8148,3,1,2,3,1,0,0,319.8148,344.5705,1.0966,24.7557,10,
117,1,4,2,209,1,169.5658,108.4126,319.7337,1,2,3,1,1,0,0,169.5658,182.1038,0.82643,12.5381,20,
117,1,4,2,210,0,315.4142,19.752,75.0819,0,0,0,2,0,0,0,19.752,19.5769,0.80547,-0.17504,40,
117,1,4,2,211,1,317.3943,106.5406,48.7222,3,2,1,1,0,0,1,317.3943,178.1323,0.67362,-139.262,0,
117,1,4,2,212,1,286.3409,257.7512,45.9026,3,2,1,3,1,0,0,45.9026,29.308,0.54857,-16.5946,20,
117,1,4,2,213,0,77.0324,49.759,139.5599,0,0,0,1,0,0,0,77.0324,94.4126,0.70135,17.3802,20,
117,1,4,2,214,0,318.0144,166.8875,138.3247,0,0,0,3,0,0,0,138.3247,132.3623,1.2568,-5.9624,30,
117,1,4,2,215,0,198.4041,109.616,45.7642,0,0,0,1,0,0,0,198.4041,5.9059,1.2568,167.5018,0,
117,1,4,2,216,0,45.5504,196.3961,258.8382,0,0,0,3,0,0,0,258.8382,203.5489,1.3679,-55.2892,0,
117,1,4,2,217,0,226.2324,48.3037,346.647,0,0,0,2,0,0,0,48.3037,64.086,0.62091,15.7823,20,
117,1,4,2,218,1,49.0048,137.7749,107.0944,2,1,3,1,0,1,0,49.0048,NaN,100000,999,0,
117,1,4,2,219,1,167.4934,18.693,255.0638,2,3,1,3,0,1,0,255.0638,NaN,100000,999,0,
117,1,4,2,220,0,288.6709,195.521,228.9629,0,0,0,1,0,0,0,288.6709,105.3491,0.90955,176.6782,0,
117,1,4,2,221,1,165.2439,196.5692,108.2082,3,1,2,3,1,0,0,108.2082,90.4098,2.1525,-17.7984,20,
117,1,4,2,222,1,48.3979,197.8389,288.2589,3,2,1,2,0,1,0,197.8389,NaN,100000,999,0,
117,1,4,2,223,1,109.8933,45.5568,136.9804,1,2,3,1,1,0,0,109.8933,80.5365,0.84026,-29.3569,10,
117,1,4,2,224,0,78.9946,289.6512,345.0236,0,0,0,2,0,0,0,289.6512,308.2356,0.99981,18.5844,20,
117,1,4,2,225,0,165.1751,197.0274,76.2483,0,0,0,2,0,0,0,197.0274,187.6074,0.97274,-9.42,30,
117,1,4,2,226,1,138.6715,347.4974,169.7165,1,3,2,1,1,0,0,138.6715,177.2118,0.90279,38.5402,0,
117,1,4,2,227,1,167.6721,77.1758,345.7885,1,2,3,2,0,1,0,77.1758,NaN,100000,999,0,
117,1,4,2,228,1,79.4084,198.6705,227.0322,3,2,1,1,0,0,1,79.4084,119.5069,0.90964,40.0985,0,
117,1,4,2,229,1,256.2999,78.9343,137.5579,1,3,2,1,1,0,0,256.2999,222.0315,0.69437,-34.2685,0,
117,1,4,2,230,0,258.2465,78.8143,167.8784,0,0,0,2,0,0,0,78.8143,81.8516,0.88887,3.0373,30,
117,1,4,2,231,1,315.1631,197.1487,45.1863,3,1,2,1,0,1,0,315.1631,NaN,100000,999,0,
117,1,4,2,232,1,166.0708,105.0193,259.4029,3,2,1,1,0,0,1,166.0708,115.8518,0.79861,-50.219,0,
117,1,4,2,233,1,285.4293,17.6559,49.4428,2,1,3,2,1,0,0,17.6559,103.9413,0.6319,86.2854,0,
117,1,4,2,234,0,137.0614,166.811,48.907,0,0,0,2,0,0,0,166.811,160.2903,1.1943,-6.5207,30,
117,1,4,2,235,0,258.397,19.884,195.6273,0,0,0,1,0,0,0,258.397,273.8087,5.1175,15.4117,20,
117,1,4,2,236,0,167.6627,229.6285,109.4954,0,0,0,2,0,0,0,229.6285,203.9742,1.2986,-25.6544,10,
117,1,4,2,237,1,289.3028,79.6955,258.401,3,1,2,3,1,0,0,258.401,274.5151,0.4375,16.1141,20,
117,1,4,2,238,0,167.6572,228.169,345.0705,0,0,0,1,0,0,0,167.6572,179.6751,0.69437,12.0178,20,
117,1,4,2,239,0,78.7617,259.4745,169.2092,0,0,0,1,0,0,0,78.7617,176.8094,0.6111,98.0477,0,
117,1,4,2,240,0,138.6643,105.5838,18.7302,0,0,0,2,0,0,0,105.5838,118.6303,1.1873,13.0465,20,
117,1,5,2,241,0,167.0559,316.1824,255.9753,0,0,0,2,0,0,0,316.1824,351.4718,0.69445,35.2893,0,
117,1,5,2,242,1,225.5146,49.9844,196.7948,2,3,1,2,1,0,0,49.9844,36.8733,0.61814,-13.1111,20,
117,1,5,2,243,1,77.9323,198.8902,258.6385,3,2,1,2,0,1,0,198.8902,NaN,100000,999,0,
117,1,5,2,244,1,228.7567,317.6118,347.4522,2,1,3,2,1,0,0,317.6118,5.2682,0.8611,47.6565,0,
117,1,5,2,245,1,16.2011,225.3515,286.5002,1,2,3,1,1,0,0,16.2011,180.2059,0.86114,164.0047,0,
117,1,5,2,246,1,166.4226,49.1528,229.0918,3,1,2,3,1,0,0,229.0918,232.5796,0.55543,3.4878,30,
117,1,5,2,247,0,48.2004,108.9378,136.35,0,0,0,2,0,0,0,108.9378,120.8838,1.104,11.9461,30,
117,1,5,2,248,1,135.4472,258.6564,229.5193,1,2,3,1,1,0,0,135.4472,159.1273,1.1318,23.6801,10,
117,1,5,2,249,0,139.9175,46.2417,348.0318,0,0,0,1,0,0,0,139.9175,172.0564,0.68055,32.1389,0,
117,1,5,2,250,0,287.9163,196.3027,345.4241,0,0,0,2,0,0,0,196.3027,177.5099,1.2499,-18.7929,20,
117,1,5,2,251,1,199.6498,106.4098,345.8444,2,3,1,2,1,0,0,106.4098,158.8678,0.81294,52.458,0,
117,1,5,2,252,1,169.1344,316.5048,346.9194,2,1,3,2,1,0,0,316.5048,320.9569,1.354,4.4521,30,
117,1,5,2,253,1,195.6162,138.6794,225.7831,3,2,1,3,1,0,0,225.7831,231.4777,0.93053,5.6947,30,
117,1,5,2,254,1,105.6737,316.6189,199.7527,2,3,1,2,1,0,0,316.6189,127.2103,0.84715,170.5914,0,
117,1,5,2,255,1,319.0859,286.8877,49.863,2,1,3,2,1,0,0,286.8877,253.4272,1.833,-33.4605,0,
117,1,5,2,256,0,169.9745,197.4529,47.5173,0,0,0,3,0,0,0,47.5173,193.9498,0.97906,146.4325,0,
117,1,5,2,257,1,108.6293,256.6972,346.3634,2,3,1,1,0,0,1,108.6293,106.1813,0.86106,-2.448,40,
117,1,5,2,258,1,315.1454,285.681,18.4728,1,3,2,1,1,0,0,315.1454,348.1789,1.1041,33.0335,0,
117,1,5,2,259,0,345.3735,195.9123,165.1584,0,0,0,2,0,0,0,195.9123,177.8176,0.9166,-18.0946,20,
117,1,5,2,260,1,48.6624,345.8147,229.6054,2,1,3,2,1,0,0,345.8147,10.7042,0.83988,24.8895,10,
117,1,5,2,261,0,75.0066,49.9063,17.851,0,0,0,3,0,0,0,17.851,6.4062,0.95133,-11.4447,30,
117,1,5,2,262,1,108.7804,256.4412,78.0309,2,3,1,3,0,1,0,78.0309,NaN,100000,999,0,
117,1,5,2,263,0,136.1479,165.0346,318.8332,0,0,0,1,0,0,0,136.1479,347.2357,1.2916,-148.9122,0,
117,1,5,2,264,1,197.5948,19.1099,348.1851,3,1,2,1,0,1,0,197.5948,NaN,100000,999,0,
117,1,5,2,265,1,107.0495,196.8559,226.1343,3,2,1,1,0,0,1,107.0495,311.8378,1.2847,-155.2116,0,
117,1,5,2,266,0,168.9651,139.0778,48.7606,0,0,0,1,0,0,0,168.9651,161.3098,0.91657,-7.6553,30,
117,1,5,2,267,1,317.7818,139.8454,168.4456,1,3,2,1,1,0,0,317.7818,323.1956,1.3124,5.4138,30,
117,1,5,2,268,0,345.0331,197.9865,288.2959,0,0,0,2,0,0,0,197.9865,357.1636,0.90962,159.1771,0,
117,1,5,2,269,0,168.9406,229.348,288.9377,0,0,0,3,0,0,0,288.9377,100.3606,1.0624,171.4229,0,
117,1,5,2,270,1,165.9414,106.621,288.5802,2,1,3,2,1,0,0,106.621,66.4015,0.74997,-40.2195,0,
117,1,5,2,271,1,168.5983,256.5138,47.2951,3,2,1,3,1,0,0,47.2951,53.3942,0.77069,6.0991,30,
117,1,5,2,272,1,17.1214,319.5277,287.0866,3,1,2,2,0,0,1,319.5277,289.7874,1.1041,-29.7402,10,
117,1,5,2,273,0,285.9294,16.4572,317.3083,0,0,0,2,0,0,0,16.4572,351.5548,0.72212,-24.9025,10,
117,1,5,2,274,1,135.8698,195.5877,105.8702,2,3,1,1,0,0,1,135.8698,292.6217,1.3402,156.7519,0,
117,1,5,2,275,1,107.3868,259.4494,195.3254,1,2,3,3,0,0,1,195.3254,192.4201,1.1735,-2.9052,40,
117,1,5,2,276,1,136.9238,347.8132,168.1692,2,3,1,3,0,1,0,168.1692,NaN,100000,999,0,
117,1,5,2,277,1,227.7422,136.0392,108.9229,1,2,3,1,1,0,0,227.7422,174.5691,0.81941,-53.1731,0,
117,1,5,2,278,1,138.9978,348.9808,289.7704,3,2,1,3,1,0,0,289.7704,274.0029,0.95838,-15.7675,20,
117,1,5,2,279,0,136.8617,167.0285,17.1941,0,0,0,2,0,0,0,167.0285,124.6823,0.74987,-42.3462,0,
117,1,5,2,280,0,318.5183,259.5948,138.3004,0,0,0,3,0,0,0,138.3004,334.097,1.0207,-164.2034,0,
117,1,5,2,281,1,225.1476,257.3617,288.3922,3,1,2,3,1,0,0,288.3922,290.0591,0.35418,1.6669,40,
117,1,5,2,282,0,19.5042,105.6908,48.9704,0,0,0,2,0,0,0,105.6908,99.6056,0.52774,-6.0852,30,
117,1,5,2,283,1,45.9366,77.7282,136.2756,1,3,2,1,1,0,0,45.9366,134.3955,1.2985,88.4589,0,
117,1,5,2,284,1,169.4306,45.747,257.1734,1,3,2,1,1,0,0,169.4306,181.0855,0.4028,11.6549,30,
117,1,5,2,285,0,287.5569,16.0754,106.7305,0,0,0,2,0,0,0,16.0754,60.0871,0.68746,44.0116,0,
117,1,5,2,286,1,287.3987,75.9933,316.1951,2,3,1,3,0,1,0,316.1951,NaN,100000,999,0,
117,1,5,2,287,1,259.6331,285.4745,76.8771,2,3,1,1,0,0,1,259.6331,327.0591,1.173,67.426,0,
117,1,5,2,288,0,197.3872,316.5277,47.5817,0,0,0,3,0,0,0,47.5817,8.8789,1.4096,-38.7028,0,
117,1,5,2,289,0,319.7979,108.851,79.3751,0,0,0,3,0,0,0,79.3751,57.1397,1.3748,-22.2354,10,
117,1,5,2,290,1,16.3184,229.58,348.0752,3,2,1,3,1,0,0,348.0752,350.2438,1.3541,2.1686,40,
117,1,5,2,291,1,347.7596,17.0191,198.7506,2,1,3,1,0,1,0,347.7596,NaN,100000,999,0,
117,1,5,2,292,1,229.2868,75.9901,315.778,2,1,3,2,1,0,0,75.9901,52.7579,0.60413,-23.2322,10,
117,1,5,2,293,0,76.7418,17.4316,258.3976,0,0,0,3,0,0,0,258.3976,73.0043,1.3401,174.6067,0,
117,1,5,2,294,0,139.9652,345.4822,196.5657,0,0,0,3,0,0,0,196.5657,199.061,1.5137,2.4953,40,
117,1,5,2,295,1,258.5304,135.1951,198.0815,2,1,3,1,0,1,0,258.5304,NaN,100000,999,0,
117,1,5,2,296,0,79.9196,45.2887,106.9827,0,0,0,3,0,0,0,106.9827,161.0955,1.8054,54.1128,0,
117,1,5,2,297,1,139.4131,317.1872,79.1748,2,1,3,3,0,0,1,79.1748,237.55,1.0486,158.3752,0,
117,1,5,2,298,0,169.0204,227.8133,108.7544,0,0,0,1,0,0,0,169.0204,27.8833,0.78473,-141.1371,0,
117,1,5,2,299,1,15.6194,315.9312,168.2325,1,2,3,1,1,0,0,15.6194,87.6244,1.2638,72.005,0,
117,1,5,2,300,1,108.8763,47.9592,16.8809,1,2,3,3,0,0,1,16.8809,21.7384,1.2082,4.8575,30,
117,1,6,2,301,0,46.9234,135.2004,227.9147,0,0,0,1,0,0,0,46.9234,180,0.59718,133.0766,0,
117,1,6,2,302,0,195.7893,347.5433,258.0165,0,0,0,3,0,0,0,258.0165,55.9097,0.8889,157.8931,0,
117,1,6,2,303,0,16.8971,197.9642,135.3425,0,0,0,2,0,0,0,197.9642,172.0976,1.2707,-25.8666,10,
117,1,6,2,304,0,347.1749,287.7893,258.1939,0,0,0,1,0,0,0,347.1749,345.2389,1.4305,-1.936,40,
117,1,6,2,305,1,16.4771,196.8306,76.7452,2,3,1,2,1,0,0,196.8306,164.65,0.96527,-32.1806,0,
117,1,6,2,306,1,317.1352,167.8886,349.4976,3,1,2,2,0,0,1,167.8886,175.1734,0.97214,7.2848,30,
117,1,6,2,307,0,349.4673,318.2654,15.2014,0,0,0,1,0,0,0,349.4673,340.3869,1.1805,-9.0804,30,
117,1,6,2,308,1,348.6462,168.243,137.3733,2,1,3,2,1,0,0,168.243,176.4172,1.1665,8.1742,30,
117,1,6,2,309,1,136.4477,45.0925,348.5075,2,1,3,2,1,0,0,45.0925,30.9155,1.0971,-14.177,20,
117,1,6,2,310,1,315.7111,256.8779,168.9678,2,1,3,2,1,0,0,256.8779,238.0995,1.0207,-18.7784,20,
117,1,6,2,311,1,169.758,196.7334,286.4866,1,3,2,1,1,0,0,169.758,194.5754,0.68742,24.8173,10,
117,1,6,2,312,1,259.5246,346.4085,138.0694,1,2,3,2,0,1,0,346.4085,NaN,100000,999,0,
117,1,6,2,313,0,225.0449,48.5914,257.2471,0,0,0,1,0,0,0,225.0449,220.4907,0.70131,-4.5543,30,
117,1,6,2,314,1,109.9422,346.2555,196.5774,1,3,2,1,1,0,0,109.9422,79.7183,1.1665,-30.2238,0,
117,1,6,2,315,0,46.3042,227.4654,109.2792,0,0,0,3,0,0,0,109.2792,96.9358,0.8889,-12.3434,20,
117,1,6,2,316,0,257.3016,227.5784,76.36,0,0,0,3,0,0,0,76.36,62.1352,0.90281,-14.2248,20,
117,1,6,2,317,1,257.7944,16.1293,135.5226,1,2,3,2,0,1,0,16.1293,NaN,100000,999,0,
117,1,6,2,318,1,19.299,47.9853,288.2738,2,1,3,1,0,1,0,19.299,NaN,100000,999,0,
117,1,6,2,319,1,195.14,255.3342,79.6353,3,1,2,3,1,0,0,79.6353,65.9468,1.2083,-13.6885,20,
117,1,6,2,320,1,15.1824,255.3184,106.6144,1,3,2,2,0,0,1,255.3184,251.7566,1.0619,-3.5618,30,
117,1,6,2,321,0,107.9897,225.1151,19.4971,0,0,0,1,0,0,0,107.9897,51.8651,1.3332,-56.1246,0,
117,1,6,2,322,0,197.2525,47.8892,285.3742,0,0,0,2,0,0,0,47.8892,59.5582,0.74308,11.669,30,
117,1,6,2,323,1,17.2564,316.2498,139.7772,2,3,1,2,1,0,0,316.2498,345.183,1.1109,28.9332,10,
117,1,6,2,324,0,17.2228,288.1376,347.6732,0,0,0,3,0,0,0,347.6732,336.4778,1.1943,-11.1954,30,
117,1,6,2,325,1,317.5363,165.5686,257.4522,3,1,2,3,1,0,0,257.4522,335.6401,0.88882,78.1879,0,
117,1,6,2,326,1,47.5541,317.8229,199.9686,2,1,3,2,1,0,0,317.8229,354.8535,0.86102,37.0306,0,
117,1,6,2,327,0,106.6799,75.7242,346.2244,0,0,0,2,0,0,0,75.7242,84.405,1.0693,8.6808,30,
117,1,6,2,328,1,169.2888,79.31,346.5665,1,3,2,3,0,1,0,346.5665,NaN,100000,999,0,
117,1,6,2,329,1,319.3634,106.4291,198.2842,3,1,2,3,1,0,0,198.2842,199.286,0.65269,1.0017,40,
117,1,6,2,330,1,349.5954,197.0535,78.6618,3,1,2,1,0,1,0,349.5954,NaN,100000,999,0,
117,1,6,2,331,1,15.0076,347.81,287.7324,3,1,2,3,1,0,0,287.7324,295.4108,0.52772,7.6784,30,
117,1,6,2,332,1,285.9061,227.1312,255.4908,1,3,2,1,1,0,0,285.9061,288.9742,1.0069,3.0681,30,
117,1,6,2,333,1,345.6878,197.1204,228.8228,3,1,2,3,1,0,0,228.8228,280.4113,0.99293,51.5885,0,
117,1,6,2,334,1,165.8893,259.9342,75.085,2,1,3,1,0,1,0,165.8893,NaN,100000,999,0,
117,1,6,2,335,1,18.1545,289.4599,318.367,1,2,3,1,1,0,0,18.1545,34.387,1.0485,16.2325,20,
117,1,6,2,336,1,227.6908,319.5507,166.7535,1,3,2,3,0,1,0,166.7535,NaN,100000,999,0,
117,1,6,2,337,0,256.578,109.9701,229.9195,0,0,0,1,0,0,0,256.578,254.9461,1.7776,-1.632,40,
117,1,6,2,338,1,258.626,319.1718,285.0945,3,2,1,1,0,0,1,258.626,262.3547,1.1112,3.7287,30,
117,1,6,2,339,0,289.6574,136.8901,18.0884,0,0,0,1,0,0,0,289.6574,279.6016,1.2638,-10.0558,30,
117,1,6,2,340,1,107.9087,195.499,225.833,3,1,2,3,1,0,0,225.833,299.2463,0.78469,73.4133,0,
117,1,6,2,341,0,19.4256,46.0482,167.4018,0,0,0,2,0,0,0,46.0482,39.2842,1.0556,-6.764,30,
117,1,6,2,342,1,78.6958,106.2681,18.5963,1,2,3,2,0,1,0,106.2681,NaN,100000,999,0,
117,1,6,2,343,0,258.1371,347.3141,105.6472,0,0,0,3,0,0,0,105.6472,68.9137,1.3123,-36.7335,0,
117,1,6,2,344,0,229.993,137.5676,346.9392,0,0,0,1,0,0,0,229.993,328.1773,0.95823,98.1843,0,
117,1,6,2,345,1,199.8122,16.5687,48.9854,2,1,3,2,1,0,0,16.5687,355.4159,1.1319,-21.1528,10,
117,1,6,2,346,1,49.5963,169.9447,79.663,2,1,3,3,0,0,1,79.663,61.0403,1.0349,-18.6227,20,
117,1,6,2,347,1,195.941,315.5034,346.4328,2,1,3,2,1,0,0,315.5034,321.0142,1.1596,5.5107,30,
117,1,6,2,348,1,106.7758,228.1557,19.3227,1,3,2,1,1,0,0,106.7758,116.1182,0.82632,9.3424,30,
117,1,6,2,349,1,16.1481,136.7947,46.8158,3,1,2,3,1,0,0,46.8158,32.2387,0.97212,-14.5771,20,
117,1,6,2,350,0,346.4404,166.8831,225.7325,0,0,0,1,0,0,0,346.4404,342.9044,1.3541,-3.536,30,
117,1,6,2,351,1,255.7971,226.3939,18.2247,3,2,1,1,0,0,1,255.7971,181.072,0.72912,-74.7252,0,
117,1,6,2,352,0,75.5483,347.8292,256.3717,0,0,0,3,0,0,0,256.3717,41.7076,0.98599,145.3359,0,
117,1,6,2,353,1,288.1388,77.2337,19.0555,1,3,2,1,1,0,0,288.1388,249.0099,0.97213,-39.1289,0,
117,1,6,2,354,0,196.9487,15.7521,166.6685,0,0,0,3,0,0,0,166.6685,192.9003,0.98602,26.2318,10,
117,1,6,2,355,0,106.9478,257.4507,79.4345,0,0,0,1,0,0,0,106.9478,77.2211,1.4512,-29.7267,10,
117,1,6,2,356,1,319.31,345.6282,258.2279,3,1,2,3,1,0,0,258.2279,252.4664,0.90959,-5.7615,30,
117,1,6,2,357,1,138.9567,288.2831,107.7184,2,3,1,2,1,0,0,288.2831,76.4153,0.59716,148.1322,0,
117,1,6,2,358,0,315.156,289.1379,16.3213,0,0,0,3,0,0,0,16.3213,84.6165,1.6248,68.2952,0,
117,1,6,2,359,0,258.0154,135.9201,225.4373,0,0,0,1,0,0,0,258.0154,235.6811,1.3817,-22.3342,10,
117,1,6,2,360,1,139.5235,198.8365,47.8133,2,1,3,2,1,0,0,198.8365,150.1166,0.67356,-48.7199,0,
117,1,7,1,361,1,137.7436,195.0777,75.4734,2,1,3,2,1,0,0,195.0777,238.8566,0.97161,43.7789,0,
117,1,7,1,362,1,256.7246,198.4634,348.583,1,2,3,1,1,0,0,256.7246,241.8453,0.81245,-14.8792,20,
117,1,7,1,363,1,135.1638,79.2181,258.8515,2,1,3,2,1,0,0,79.2181,71.9591,0.63191,-7.2589,30,
117,1,7,1,364,1,318.2542,229.9111,195.9692,1,2,3,2,0,1,0,229.9111,241.2778,1.1804,11.3667,30,
117,1,7,1,365,1,108.4551,288.2361,228.1172,3,1,2,3,1,0,0,228.1172,255.1969,0.67357,27.0797,10,
117,1,7,1,366,0,346.1287,288.3308,49.3567,0,0,0,1,0,0,0,346.1287,315.1269,0.9652,-31.0018,0,
117,1,7,1,367,1,228.7525,46.6696,168.1642,3,2,1,3,1,0,0,168.1642,183.1823,0.73607,15.0181,20,
117,1,7,1,368,1,226.3755,139.1398,258.9639,1,2,3,3,0,0,1,258.9639,111.1187,1.2429,-147.8452,0,
117,1,7,1,369,1,79.0965,319.6324,17.5706,3,1,2,2,0,0,1,319.6324,335.7742,1.3262,16.1418,20,
117,1,7,1,370,1,319.6235,15.2778,76.9202,2,1,3,1,0,1,0,319.6235,69.9534,1.1111,110.3299,0,
117,1,7,1,371,0,319.6585,285.5445,48.2585,0,0,0,1,0,0,0,319.6585,328.5752,0.84019,8.9167,30,
117,1,7,1,372,0,106.2626,258.2717,15.3005,0,0,0,3,0,0,0,15.3005,38.4602,1.3054,23.1597,10,
117,1,7,1,373,0,49.0672,258.9382,345.6216,0,0,0,2,0,0,0,258.9382,9.5301,1.1041,110.592,0,
117,1,7,1,374,1,166.1154,197.5488,18.9387,3,2,1,1,0,0,1,166.1154,241.0349,1.1319,74.9196,0,
117,1,7,1,375,0,135.6449,196.0742,226.4641,0,0,0,1,0,0,0,135.6449,147.8656,0.61106,12.2207,20,
117,1,7,1,376,1,258.7972,46.9971,227.8371,3,2,1,1,0,0,1,258.7972,272.0666,1.4373,13.2694,20,
117,1,7,1,377,1,19.3937,136.9647,106.2132,3,1,2,3,1,0,0,106.2132,276.7796,0.93738,170.5664,0,
117,1,7,1,378,1,198.1299,16.6345,346.5555,1,3,2,2,0,0,1,16.6345,98.826,0.82627,82.1915,0,
117,1,7,1,379,0,255.9533,317.2465,78.8433,0,0,0,2,0,0,0,317.2465,324.1324,0.78467,6.8859,30,
117,1,7,1,380,1,106.7368,288.8994,198.5417,1,3,2,3,0,1,0,198.5417,275.9467,0.73601,77.405,0,
117,1,7,1,381,1,226.6913,289.8702,169.7739,1,3,2,1,1,0,0,226.6913,176.2837,1.6319,-50.4076,0,
117,1,7,1,382,1,75.0635,45.6611,226.9403,1,3,2,1,1,0,0,75.0635,175.6087,0.8402,100.5452,0,
117,1,7,1,383,0,195.7207,48.1759,349.0121,0,0,0,2,0,0,0,48.1759,65.0363,0.4583,16.8604,20,
117,1,7,1,384,1,135.4763,286.2294,199.6733,3,1,2,2,0,0,1,286.2294,346.5404,0.72912,60.3111,0,
117,1,7,1,385,0,107.2227,346.6329,286.4365,0,0,0,1,0,0,0,107.2227,70.2139,1.5694,-37.0088,0,
117,1,7,1,386,0,167.3073,257.9357,47.388,0,0,0,3,0,0,0,47.388,31.8521,1.7708,-15.5359,20,
117,1,7,1,387,0,105.1816,45.943,347.8877,0,0,0,1,0,0,0,105.1816,108.5797,0.67364,3.398,30,
117,1,7,1,388,0,197.7527,139.9306,168.4489,0,0,0,2,0,0,0,139.9306,188.4503,1.1245,48.5197,0,
117,1,7,1,389,1,106.463,49.1621,137.8526,2,3,1,2,1,0,0,49.1621,28.1586,0.8264,-21.0035,10,
117,1,7,1,390,0,18.0356,289.7875,76.6533,0,0,0,1,0,0,0,18.0356,354.5512,1.1319,-23.4844,10,
117,1,7,1,391,1,45.3576,315.0784,289.8684,3,1,2,3,1,0,0,289.8684,294.3596,0.68742,4.4912,30,
117,1,7,1,392,1,78.5901,105.9445,317.1697,3,1,2,3,1,0,0,317.1697,294.5735,0.67363,-22.5962,10,
117,1,7,1,393,1,319.7139,18.3713,226.9283,2,3,1,2,1,0,0,18.3713,16.4027,0.87494,-1.9686,40,
117,1,7,1,394,1,196.9913,225.6865,319.7638,3,2,1,3,1,0,0,319.7638,313.6001,0.74296,-6.1637,30,
117,1,7,1,395,0,75.4069,138.9374,255.872,0,0,0,1,0,0,0,75.4069,76.8156,1.1666,1.4087,40,
117,1,7,1,396,0,347.3247,229.1204,79.3594,0,0,0,3,0,0,0,79.3594,64.4169,1.1041,-14.9425,20,
117,1,7,1,397,0,199.4692,169.205,48.4164,0,0,0,1,0,0,0,199.4692,353.7748,1.0138,154.3056,0,
117,1,7,1,398,1,106.0224,15.3143,48.1119,3,1,2,3,1,0,0,48.1119,32.0881,1.2152,-16.0238,20,
117,1,7,1,399,1,347.7221,289.2307,45.2035,1,3,2,1,1,0,0,347.7221,178.2138,0.97207,-169.5083,0,
117,1,7,1,400,1,288.0459,259.8347,198.8666,1,3,2,1,1,0,0,288.0459,103.9696,0.61114,175.9237,0,
117,1,7,1,401,0,138.5923,169.9766,75.4185,0,0,0,1,0,0,0,138.5923,309.3024,0.59712,170.7101,0,
117,1,7,1,402,1,138.4918,47.2984,315.7883,3,1,2,3,1,0,0,315.7883,159.0751,1.2083,-156.7132,0,
117,1,7,1,403,1,318.6274,135.6952,168.1628,3,1,2,1,0,1,0,318.6274,302.7894,1.1734,-15.838,20,
117,1,7,1,404,1,198.2711,316.0916,345.5957,3,1,2,3,1,0,0,345.5957,332.8855,0.99988,-12.7102,20,
117,1,7,1,405,1,19.5455,197.2517,168.7432,1,3,2,3,0,1,0,168.7432,351.9383,1.0137,-176.8049,0,
117,1,7,1,406,0,196.9978,48.2766,317.8342,0,0,0,3,0,0,0,317.8342,334.8139,0.81244,16.9797,20,
117,1,7,1,407,1,18.4428,258.0195,106.9348,2,3,1,3,0,1,0,106.9348,71.8576,1.25,-35.0771,0,
117,1,7,1,408,0,18.089,137.9711,318.3294,0,0,0,3,0,0,0,318.3294,43.2858,0.9513,84.9565,0,
117,1,7,1,409,0,285.4329,319.6342,15.7424,0,0,0,1,0,0,0,285.4329,305.4501,5.4856,20.0172,20,
117,1,7,1,410,0,167.2618,137.6668,287.6333,0,0,0,2,0,0,0,137.6668,117.6509,0.82635,-20.0159,20,
117,1,7,1,411,1,257.6176,76.6841,136.6619,3,1,2,3,1,0,0,136.6619,288.1478,0.48612,151.4859,0,
117,1,7,1,412,1,318.6127,255.6712,169.2655,2,3,1,2,1,0,0,255.6712,84.4134,0.8263,-171.2579,0,
117,1,7,1,413,1,195.6399,167.3218,78.713,1,3,2,1,1,0,0,195.6399,244.3155,0.95131,48.6756,0,
117,1,7,1,414,0,255.0215,348.2625,136.8484,0,0,0,2,0,0,0,348.2625,159.6249,1.0068,171.3624,0,
117,1,7,1,415,0,169.2599,195.5886,108.2863,0,0,0,3,0,0,0,108.2863,150.5987,1.2984,42.3124,0,
117,1,7,1,416,0,108.0519,256.2399,137.5898,0,0,0,1,0,0,0,108.0519,95.9007,1.1874,-12.1512,20,
117,1,7,1,417,1,315.776,79.9704,137.2512,1,2,3,1,1,0,0,315.776,326.9201,1.354,11.1441,30,
117,1,7,1,418,1,109.5576,45.6649,285.2108,2,1,3,3,0,0,1,285.2108,286.5678,0.70834,1.3569,40,
117,1,7,1,419,0,285.9982,227.6508,348.1368,0,0,0,1,0,0,0,285.9982,277.4185,1.0901,-8.5797,30,
117,1,7,1,420,1,285.1161,195.8806,349.3046,2,3,1,2,1,0,0,195.8806,217.8931,0.70132,22.0125,10,
117,1,8,1,421,1,139.1592,226.9724,75.4832,2,3,1,2,1,0,0,226.9724,345.8999,0.47219,118.9276,0,
117,1,8,1,422,1,258.0006,19.9983,285.6459,3,1,2,3,1,0,0,285.6459,282.5885,0.55822,-3.0574,30,
117,1,8,1,423,0,347.863,79.9688,136.8148,0,0,0,2,0,0,0,79.9688,72.9776,0.48599,-6.9912,30,
117,1,8,1,424,1,138.8927,289.0539,347.4898,3,2,1,3,1,0,0,347.4898,278.3192,0.2569,-69.1706,0,
117,1,8,1,425,0,139.122,45.8653,229.3182,0,0,0,3,0,0,0,229.3182,285.0997,0.75689,55.7815,0,
117,1,8,1,426,1,138.0311,78.9619,49.1808,2,1,3,2,1,0,0,78.9619,72.1534,0.78468,-6.8085,30,
117,1,8,1,427,0,46.1867,195.6983,256.1037,0,0,0,2,0,0,0,195.6983,170.396,0.97206,-25.3023,10,
117,1,8,1,428,1,346.4768,289.5354,227.4644,3,2,1,3,1,0,0,227.4644,298.6835,0.75692,71.219,0,
117,1,8,1,429,1,47.187,79.2999,15.0445,1,3,2,1,1,0,0,47.187,353.6844,1.9928,-53.5026,0,
117,1,8,1,430,0,79.2645,348.4328,109.7906,0,0,0,2,0,0,0,348.4328,19.0799,0.90969,30.6472,0,
117,1,8,1,431,1,166.9384,345.2837,198.4479,3,2,1,3,1,0,0,198.4479,196.4284,1.4513,-2.0195,40,
117,1,8,1,432,0,46.1005,196.179,169.0506,0,0,0,3,0,0,0,169.0506,195.7493,1.1944,26.6987,10,
117,1,8,1,433,0,285.1488,259.3335,319.4721,0,0,0,2,0,0,0,259.3335,272.9503,1.0624,13.6168,20,
117,1,8,1,434,0,315.0558,256.1726,168.5349,0,0,0,1,0,0,0,315.0558,316.094,0.89574,1.0382,40,
117,1,8,1,435,1,138.3282,106.1507,49.0244,2,3,1,2,1,0,0,106.1507,98.1568,1.0554,-7.9939,30,
117,1,8,1,436,0,167.1549,138.8245,349.9823,0,0,0,3,0,0,0,349.9823,353.1733,1.1318,3.1909,30,
117,1,8,1,437,0,107.9765,77.5306,228.882,0,0,0,2,0,0,0,77.5306,69.1939,0.61102,-8.3367,30,
117,1,8,1,438,1,165.7078,228.0405,49.6531,3,2,1,1,0,0,1,165.7078,181.5454,0.56254,15.8376,20,
117,1,8,1,439,1,348.1345,49.685,316.5997,2,1,3,3,0,0,1,316.5997,293.1985,0.61792,-23.4012,10,
117,1,8,1,440,1,75.7592,348.6651,45.1985,2,1,3,2,1,0,0,348.6651,20.54,0.86799,31.875,0,
117,1,8,1,441,1,166.6833,319.4168,46.6683,3,2,1,3,1,0,0,46.6683,28.8051,0.93001,-17.8632,20,
117,1,8,1,442,1,78.6986,197.224,109.252,1,2,3,2,0,1,0,197.224,179.4404,0.84714,-17.7836,20,
117,1,8,1,443,1,227.4811,166.4383,105.9151,1,3,2,1,1,0,0,227.4811,196.1659,0.8957,-31.3151,0,
117,1,8,1,444,0,226.7599,195.5008,288.965,0,0,0,1,0,0,0,226.7599,271.0479,0.77067,44.2879,0,
117,1,8,1,445,1,228.4323,319.7786,106.5395,1,2,3,1,1,0,0,228.4323,215.2819,0.81937,-13.1504,20,
117,1,8,1,446,0,79.7326,317.4622,348.7411,0,0,0,1,0,0,0,79.7326,85.4317,1.1388,5.6991,30,
117,1,8,1,447,0,45.9115,197.797,18.1324,0,0,0,3,0,0,0,18.1324,15.7682,1.0971,-2.3641,40,
117,1,8,1,448,1,18.6621,168.1551,287.341,3,2,1,3,1,0,0,287.341,290.8822,1.1249,3.5411,30,
117,1,8,1,449,1,136.0884,285.0426,346.5031,3,1,2,3,1,0,0,346.5031,340.2459,0.56936,-6.2572,30,
117,1,8,1,450,0,315.1533,349.0435,225.2357,0,0,0,2,0,0,0,349.0435,148.1873,1.3337,159.1439,0,
117,1,8,1,451,1,138.6936,315.0693,168.3956,2,3,1,3,0,1,0,168.3956,162.4413,1.361,-5.9543,30,
117,1,8,1,452,1,46.0342,105.1868,78.3168,3,2,1,3,1,0,0,78.3168,104.4912,1.3679,26.1744,10,
117,1,8,1,453,0,165.0947,45.9217,15.1337,0,0,0,2,0,0,0,45.9217,58.9609,0.85413,13.0392,20,
117,1,8,1,454,0,348.5217,318.8731,289.1133,0,0,0,3,0,0,0,289.1133,292.4824,0.59715,3.3691,30,
117,1,8,1,455,1,139.6704,47.9709,317.9655,2,1,3,2,1,0,0,47.9709,53.9549,1.0486,5.9841,30,
117,1,8,1,456,1,286.0016,45.0729,168.8158,2,3,1,2,1,0,0,45.0729,40.2395,0.87486,-4.8334,30,
117,1,8,1,457,1,195.2941,256.1198,15.8399,3,1,2,3,1,0,0,15.8399,3.1248,0.8819,-12.7151,20,
117,1,8,1,458,1,138.5184,169.1855,258.6365,1,2,3,1,1,0,0,138.5184,147.6755,0.46523,9.1571,30,
117,1,8,1,459,1,19.902,108.5641,259.1282,3,2,1,2,0,1,0,108.5641,74.56,0.78242,-34.0041,0,
117,1,8,1,460,1,108.5872,226.0126,318.2188,2,1,3,2,1,0,0,226.0126,231.2682,0.93046,5.2557,30,
117,1,8,1,461,0,19.6597,105.4666,288.6939,0,0,0,3,0,0,0,288.6939,352.2493,1.0833,63.5554,0,
117,1,8,1,462,1,109.9663,18.7877,196.3753,3,1,2,2,0,0,1,18.7877,177.7743,1.3401,158.9866,0,
117,1,8,1,463,0,139.1878,168.7421,197.9193,0,0,0,3,0,0,0,197.9193,186.6378,1.2152,-11.2815,30,
117,1,8,1,464,0,136.7104,259.36,16.3401,0,0,0,3,0,0,0,16.3401,19.5195,0.80546,3.1793,30,
117,1,8,1,465,1,136.4382,79.6219,316.4924,3,2,1,2,0,1,0,79.6219,108.7385,0.97911,29.1166,10,
117,1,8,1,466,1,196.6333,136.0981,167.5911,3,1,2,3,1,0,0,167.5911,194.409,0.98599,26.8178,10,
117,1,8,1,467,1,226.3809,318.4812,259.4068,3,2,1,3,1,0,0,259.4068,244.2553,0.54164,-15.1515,20,
117,1,8,1,468,0,18.9916,169.3163,138.9898,0,0,0,2,0,0,0,169.3163,159.9667,0.62493,-9.3496,30,
117,1,8,1,469,1,15.3526,75.3001,108.3079,3,1,2,3,1,0,0,108.3079,65.0154,1.118,-43.2924,0,
117,1,8,1,470,0,46.2786,346.8916,169.9687,0,0,0,1,0,0,0,46.2786,148.6773,0.56931,102.3986,0,
117,1,8,1,471,1,345.2622,106.6171,78.9984,3,1,2,3,1,0,0,78.9984,62.8229,0.79854,-16.1755,20,
117,1,8,1,472,0,348.2674,166.2214,78.7896,0,0,0,3,0,0,0,78.7896,68.7751,0.77767,-10.0145,30,
117,1,8,1,473,1,106.559,257.9588,76.8881,1,2,3,2,0,1,0,257.9588,233.9544,1.2777,-24.0044,10,
117,1,8,1,474,1,317.6116,229.0412,257.2379,2,1,3,3,0,0,1,257.2379,283.5715,0.73598,26.3336,10,
117,1,8,1,475,1,287.5106,197.8513,19.2574,1,3,2,1,1,0,0,287.5106,271.9447,1.1665,-15.5659,20,
117,1,8,1,476,0,227.7234,199.2796,318.2134,0,0,0,1,0,0,0,227.7234,189.2988,0.72223,-38.4245,0,
117,1,8,1,477,1,76.0947,286.1864,255.0432,1,3,2,3,0,1,0,255.0432,291.8053,0.55507,36.7621,0,
117,1,8,1,478,1,317.4562,198.8708,225.7391,2,3,1,3,0,1,0,225.7391,296.3887,0.81249,70.6496,0,
117,1,8,1,479,1,46.7157,195.3171,168.0624,1,3,2,2,0,0,1,195.3171,176.0083,1.354,-19.3088,20,
117,1,8,1,480,1,285.5423,79.2688,319.5543,3,1,2,3,1,0,0,319.5543,337.8738,0.95128,18.3196,20,
