Subject,Session,Block,Condition,Trial,whetherCued,leftStim,rightStim,midStim,remCueLoc,fogCueLoc,neutralCueLoc,probeCueLoc,probeRem,probeForget,probeNeutral,Target,Estimate,RT,Error,Points
108,1,1,2,1,0,136.1214,256.3453,18.3652,0,0,0,3,0,0,0,18.3652,355.285,1.1109,-23.0802,10,
108,1,1,2,2,1,289.4795,225.4954,105.2208,2,3,1,2,1,0,0,225.4954,191.4789,1.1456,-34.0165,0,
108,1,1,2,3,1,347.5064,287.1586,109.9878,1,3,2,1,1,0,0,347.5064,325.7697,1.6735,-21.7367,10,
108,1,1,2,4,0,348.6529,108.2324,289.1658,0,0,0,2,0,0,0,108.2324,156.0849,1.1942,47.8526,0,
108,1,1,2,5,0,107.4617,228.4737,289.8637,0,0,0,3,0,0,0,289.8637,298.7141,1.2493,8.8505,30,
108,1,1,2,6,1,138.3022,255.2378,226.7439,1,3,2,2,0,0,1,255.2378,250.8611,1.319,-4.3767,30,
108,1,1,2,7,1,197.5189,257.448,49.3852,1,3,2,1,1,0,0,197.5189,224.4287,1.0416,26.9098,10,
108,1,1,2,8,1,105.0963,165.4194,19.874,3,1,2,3,1,0,0,19.874,227.909,0.89578,-151.965,0,
108,1,1,2,9,1,349.6502,286.9951,105.237,2,3,1,2,1,0,0,286.9951,288.6761,0.79863,1.681,40,
108,1,1,2,10,1,259.389,197.9122,285.3534,3,2,1,3,1,0,0,285.3534,281.7691,1.4512,-3.5844,30,
108,1,1,2,11,1,317.5194,78.234,226.5387,2,1,3,2,1,0,0,78.234,108.1616,0.986,29.9276,10,
108,1,1,2,12,0,226.4331,199.0041,19.4806,0,0,0,2,0,0,0,199.0041,186.3234,1.4581,-12.6807,20,
108,1,1,2,13,1,199.1477,319.2454,226.8627,2,3,1,2,1,0,0,319.2454,39.6562,0.7361,80.4108,0,
108,1,1,2,14,1,198.7837,137.0852,229.8589,3,2,1,1,0,0,1,198.7837,177.3115,1.1735,-21.4722,10,
108,1,1,2,15,1,317.252,136.0284,79.4983,2,3,1,2,1,0,0,136.0284,120.1205,0.96529,-15.9079,20,
108,1,1,2,16,1,166.9501,227.4895,288.474,3,1,2,3,1,0,0,288.474,297.332,1.2568,8.858,30,
108,1,1,2,17,0,255.5852,109.0734,346.6243,0,0,0,3,0,0,0,346.6243,345.1446,0.93744,-1.4797,40,
108,1,1,2,18,0,19.1594,45.6717,75.3023,0,0,0,2,0,0,0,45.6717,38.4951,0.8749,-7.1766,30,
108,1,1,2,19,1,139.9843,17.7677,197.5773,1,2,3,1,1,0,0,139.9843,151.4258,1.097,11.4415,30,
108,1,1,2,20,1,169.6556,105.9539,16.2929,3,2,1,1,0,0,1,169.6556,159.4048,1.0971,-10.2507,30,
108,1,1,2,21,1,198.6008,256.7345,227.585,1,3,2,1,1,0,0,198.6008,206.7537,0.75684,8.1528,30,
108,1,1,2,22,1,47.1514,228.4688,289.7261,3,2,1,3,1,0,0,289.7261,332.7127,1.0068,42.9866,0,
108,1,1,2,23,1,288.3452,197.5011,346.09,3,2,1,3,1,0,0,346.09,332.6599,1.2985,-13.4301,20,
108,1,1,2,24,1,229.3193,135.4885,169.5403,2,3,1,2,1,0,0,135.4885,125.6004,1.8123,-9.8881,30,
108,1,1,2,25,0,137.5392,347.928,18.8144,0,0,0,3,0,0,0,18.8144,3.2244,1.1665,-15.59,20,
108,1,1,2,26,1,17.7694,108.4003,196.8359,3,1,2,3,1,0,0,196.8359,12.6558,0.71524,175.8198,0,
108,1,1,2,27,0,135.7013,16.3007,195.4341,0,0,0,1,0,0,0,135.7013,119.4485,1.4165,-16.2528,20,
108,1,1,2,28,0,346.1034,285.0065,135.9459,0,0,0,1,0,0,0,346.1034,151.6018,1.1943,165.4984,0,
108,1,1,2,29,1,105.3418,17.1816,75.8693,3,2,1,3,1,0,0,75.8693,45.6458,0.84017,-30.2235,0,
108,1,1,2,30,1,166.1401,16.8543,319.4546,1,3,2,1,1,0,0,166.1401,161.9389,0.8889,-4.2012,30,
108,1,1,2,31,1,347.6621,78.5825,225.8965,3,2,1,3,1,0,0,225.8965,227.4202,1.1665,1.5237,40,
108,1,1,2,32,1,169.6783,319.0936,48.6413,2,1,3,1,0,1,0,169.6783,NaN,100000,999,0,
108,1,1,2,33,1,108.812,17.8803,78.7383,3,2,1,3,1,0,0,78.7383,54.0076,1.2289,-24.7307,10,
108,1,1,2,34,0,347.6614,136.397,49.7312,0,0,0,3,0,0,0,49.7312,49.1623,1.3055,-0.56881,40,
108,1,1,2,35,0,78.6346,196.8692,47.9079,0,0,0,1,0,0,0,78.6346,54.7937,1.7081,-23.8409,10,
108,1,1,2,36,1,45.7597,16.9855,196.8736,3,1,2,2,0,0,1,16.9855,142.8195,2.2428,125.8339,0,
108,1,1,2,37,1,138.2116,316.1063,79.1853,3,1,2,3,1,0,0,79.1853,51.5878,1.5623,-27.5975,10,
108,1,1,2,38,1,319.2929,289.5553,168.4982,3,2,1,3,1,0,0,168.4982,185.2202,1.1805,16.7221,20,
108,1,1,2,39,1,287.6468,199.1499,49.2938,1,2,3,3,0,0,1,49.2938,169.4846,1.5762,120.1908,0,
108,1,1,2,40,1,169.2518,139.5582,198.1964,1,2,3,2,0,1,0,139.5582,NaN,100000,999,0,
108,1,1,2,41,0,169.1329,48.3844,286.038,0,0,0,3,0,0,0,286.038,274.2459,1.3261,-11.7921,30,
108,1,1,2,42,0,287.2569,316.9132,48.9482,0,0,0,2,0,0,0,316.9132,342.1833,1.6873,25.2701,10,
108,1,1,2,43,0,228.7938,349.9761,315.9329,0,0,0,3,0,0,0,315.9329,183.9372,1.7568,-131.9957,0,
108,1,1,2,44,1,285.9688,47.1618,258.7458,2,3,1,2,1,0,0,47.1618,34.3832,1.2499,-12.7786,20,
108,1,1,2,45,0,19.6749,137.3974,346.159,0,0,0,1,0,0,0,19.6749,45.7347,1.3125,26.0598,10,
108,1,1,2,46,1,287.6548,259.506,317.7028,2,3,1,2,1,0,0,259.506,84.4732,0.81246,-175.0328,0,
108,1,1,2,47,1,105.9911,165.9754,316.6342,1,2,3,1,1,0,0,105.9911,129.3832,1.1804,23.3921,10,
108,1,1,2,48,0,109.0699,259.4922,77.1462,0,0,0,1,0,0,0,109.0699,118.8305,1.0901,9.7606,30,
108,1,1,2,49,0,315.4649,347.3174,285.0467,0,0,0,1,0,0,0,315.4649,284.9109,0.82628,-30.554,0,
108,1,1,2,50,1,77.1828,225.2461,105.2482,2,3,1,2,1,0,0,225.2461,183.4242,0.88187,-41.8219,0,
108,1,1,2,51,0,17.3062,228.1966,259.5867,0,0,0,2,0,0,0,228.1966,252.0395,0.90983,23.8429,10,
108,1,1,2,52,0,19.9049,195.6352,286.1612,0,0,0,2,0,0,0,195.6352,228.1689,1.6596,32.5337,0,
108,1,1,2,53,0,19.2845,75.217,318.4581,0,0,0,1,0,0,0,19.2845,175.94,1.1596,156.6555,0,
108,1,1,2,54,0,79.095,348.1246,228.6928,0,0,0,1,0,0,0,79.095,41.1973,1.1596,-37.8977,0,
108,1,1,2,55,0,49.4771,227.9126,257.9137,0,0,0,3,0,0,0,257.9137,62.0965,1.8331,164.1828,0,
108,1,1,2,56,0,47.0319,136.931,228.049,0,0,0,2,0,0,0,136.931,233.2385,3.4232,96.3075,0,
108,1,1,2,57,0,77.6151,16.6265,49.1592,0,0,0,3,0,0,0,49.1592,183.4934,1.8818,134.3342,0,
108,1,1,2,58,0,137.6428,345.2572,78.7844,0,0,0,2,0,0,0,345.2572,44.5122,1.1319,59.255,0,
108,1,1,2,59,1,168.7425,317.7165,226.6907,3,2,1,2,0,1,0,317.7165,NaN,100000,999,0,
108,1,1,2,60,1,315.1258,197.0721,138.657,1,2,3,1,1,0,0,315.1258,289.6597,0.71527,-25.466,10,
108,1,2,2,61,1,315.8145,169.192,195.8378,2,3,1,2,1,0,0,169.192,147.044,1.972,-22.148,10,
108,1,2,2,62,0,109.7017,135.0292,228.0515,0,0,0,3,0,0,0,228.0515,239.3844,1.1665,11.3328,30,
108,1,2,2,63,1,256.4523,47.0128,289.3103,1,2,3,1,1,0,0,256.4523,225.3331,1.0416,-31.1192,0,
108,1,2,2,64,0,319.2054,76.7725,167.1503,0,0,0,3,0,0,0,167.1503,170.0401,1.3054,2.8898,40,
108,1,2,2,65,1,289.8173,135.4295,167.5025,2,3,1,2,1,0,0,135.4295,129.3726,1.0762,-6.0569,30,
108,1,2,2,66,1,46.5193,197.4165,346.6891,2,3,1,2,1,0,0,197.4165,141.0142,0.68743,-56.4023,0,
108,1,2,2,67,1,79.9262,107.7974,169.668,1,2,3,1,1,0,0,79.9262,105.9994,0.97214,26.0732,10,
108,1,2,2,68,1,135.5422,165.1806,228.0905,1,2,3,1,1,0,0,135.5422,118.2681,0.91662,-17.274,20,
108,1,2,2,69,0,259.4502,346.651,166.1485,0,0,0,1,0,0,0,259.4502,247.4843,1.854,-11.9659,30,
108,1,2,2,70,0,135.5697,19.8928,79.243,0,0,0,2,0,0,0,19.8928,66.2528,1.1944,46.36,0,
108,1,2,2,71,1,285.5402,17.2994,137.2544,1,3,2,1,1,0,0,285.5402,261.1096,0.71518,-24.4306,10,
108,1,2,2,72,0,138.7045,347.534,165.9996,0,0,0,2,0,0,0,347.534,3.8278,0.86796,16.2939,20,
108,1,2,2,73,1,169.3879,345.0718,46.4715,1,2,3,2,0,1,0,345.0718,NaN,100000,999,0,
108,1,2,2,74,1,227.7164,78.5126,19.7822,1,3,2,2,0,0,1,78.5126,207.2026,3.4234,128.69,0,
108,1,2,2,75,1,78.8751,319.5709,48.9128,1,3,2,1,1,0,0,78.8751,97.512,0.95129,18.6369,20,
108,1,2,2,76,0,48.4957,168.9813,137.2079,0,0,0,1,0,0,0,48.4957,49.6256,0.72869,1.1299,40,
108,1,2,2,77,1,315.7287,287.9252,345.3668,3,1,2,2,0,0,1,287.9252,17.3871,1.7637,89.4619,0,
108,1,2,2,78,0,286.8252,226.5457,315.6046,0,0,0,1,0,0,0,286.8252,150.8589,1.7221,-135.9663,0,
108,1,2,2,79,0,256.6999,319.2336,46.2303,0,0,0,3,0,0,0,46.2303,37.0567,1.1596,-9.1737,30,
108,1,2,2,80,1,135.68,78.9445,105.462,1,3,2,1,1,0,0,135.68,145.0957,0.90957,9.4157,30,
108,1,2,2,81,1,75.0988,319.8215,349.8519,1,2,3,1,1,0,0,75.0988,115.4364,1.0416,40.3375,0,
108,1,2,2,82,1,19.6916,226.2771,107.6658,3,2,1,3,1,0,0,107.6658,113.8708,0.81935,6.205,30,
108,1,2,2,83,0,138.9798,226.1669,78.0042,0,0,0,3,0,0,0,78.0042,104.1702,1.5138,26.166,10,
108,1,2,2,84,1,346.4868,16.9821,317.1038,2,1,3,3,0,0,1,317.1038,328.1708,1.7846,11.067,30,
108,1,2,2,85,1,317.7541,79.3545,195.2113,1,3,2,1,1,0,0,317.7541,292.8631,0.94448,-24.8909,10,
108,1,2,2,86,1,47.5997,169.9459,257.4496,1,2,3,1,1,0,0,47.5997,49.6845,0.9999,2.0848,40,
108,1,2,2,87,0,79.0846,195.9474,105.6185,0,0,0,2,0,0,0,195.9474,169.472,1.3818,-26.4754,10,
108,1,2,2,88,1,76.6599,319.1987,286.8586,3,1,2,3,1,0,0,286.8586,288.696,1.0069,1.8374,40,
108,1,2,2,89,1,135.784,76.6302,46.5703,1,2,3,1,1,0,0,135.784,135.1427,0.84705,-0.64135,40,
108,1,2,2,90,0,286.0726,228.3995,167.7865,0,0,0,2,0,0,0,228.3995,204.5058,1.3055,-23.8938,10,
108,1,2,2,91,1,287.0116,195.9092,139.2813,3,2,1,1,0,0,1,287.0116,148.5926,1.2429,-138.4191,0,
108,1,2,2,92,1,225.9992,318.0367,107.7152,3,2,1,3,1,0,0,107.7152,106.072,1.0693,-1.6432,40,
108,1,2,2,93,0,48.791,169.4352,15.344,0,0,0,1,0,0,0,48.791,22.3335,1.5832,-26.4575,10,
108,1,2,2,94,0,16.9081,317.8384,169.4393,0,0,0,3,0,0,0,169.4393,170.8156,1.5623,1.3763,40,
108,1,2,2,95,0,139.6308,166.4925,256.6904,0,0,0,1,0,0,0,139.6308,203.7231,1.3748,64.0923,0,
108,1,2,2,96,0,346.3991,77.235,47.9379,0,0,0,3,0,0,0,47.9379,22.497,1.2707,-25.4408,10,
108,1,2,2,97,0,349.442,316.1658,289.308,0,0,0,2,0,0,0,316.1658,333.8674,1.2846,17.7015,20,
108,1,2,2,98,1,287.6372,108.625,348.0371,2,1,3,1,0,1,0,287.6372,NaN,100000,999,0,
108,1,2,2,99,1,349.0746,135.7025,259.3993,2,3,1,3,0,1,0,259.3993,NaN,100000,999,0,
108,1,2,2,100,0,15.4219,229.8604,285.1573,0,0,0,1,0,0,0,15.4219,2.4191,1.1874,-13.0027,20,
108,1,2,2,101,1,318.2673,77.4483,349.8643,3,1,2,3,1,0,0,349.8643,337.0883,0.61801,-12.7759,20,
108,1,2,2,102,1,287.6205,225.601,105.889,3,2,1,2,0,1,0,225.601,NaN,100000,999,0,
108,1,2,2,103,1,77.9122,257.105,345.4603,1,2,3,1,1,0,0,77.9122,85.335,1.4096,7.4228,30,
108,1,2,2,104,0,15.8762,165.966,258.0821,0,0,0,2,0,0,0,165.966,39.8662,0.72213,-126.0998,0,
108,1,2,2,105,0,288.861,317.3768,18.4045,0,0,0,2,0,0,0,317.3768,340.1142,1.3818,22.7374,10,
108,1,2,2,106,1,139.1315,79.956,197.6197,1,3,2,1,1,0,0,139.1315,124.8123,1.1736,-14.3192,20,
108,1,2,2,107,1,317.3578,347.715,225.2985,1,2,3,2,0,1,0,347.715,NaN,100000,999,0,
108,1,2,2,108,1,79.1667,256.0186,227.7221,3,2,1,1,0,0,1,79.1667,130.9426,1.4026,51.7758,0,
108,1,2,2,109,1,165.6614,49.3524,348.0148,1,3,2,1,1,0,0,165.6614,138.0111,0.79148,-27.6503,10,
108,1,2,2,110,0,76.8968,319.3234,17.0998,0,0,0,2,0,0,0,319.3234,332.6454,1.2985,13.3221,20,
108,1,2,2,111,1,349.1405,287.5372,16.8308,3,1,2,1,0,1,0,349.1405,NaN,100000,999,0,
108,1,2,2,112,1,167.8456,109.3752,136.7429,3,2,1,1,0,0,1,167.8456,160.1641,1.472,-7.6814,30,
108,1,2,2,113,1,17.3376,75.7067,45.3407,2,1,3,2,1,0,0,75.7067,59.8857,0.77773,-15.821,20,
108,1,2,2,114,0,346.2021,48.4245,319.1963,0,0,0,2,0,0,0,48.4245,61.8697,1.2082,13.4451,20,
108,1,2,2,115,0,316.9479,48.8765,285.8968,0,0,0,1,0,0,0,316.9479,169.9087,1.2152,-147.0392,0,
108,1,2,2,116,0,169.6136,317.8213,17.1573,0,0,0,2,0,0,0,317.8213,326.3911,0.9791,8.5698,30,
108,1,2,2,117,1,79.9629,257.2792,17.1302,3,1,2,3,1,0,0,17.1302,26.7644,0.81247,9.6342,30,
108,1,2,2,118,0,348.4165,318.0428,46.0983,0,0,0,1,0,0,0,348.4165,351.9544,1.229,3.5378,30,
108,1,2,2,119,0,169.7606,319.8793,345.1546,0,0,0,1,0,0,0,169.7606,157.3041,0.99294,-12.4565,20,
108,1,2,2,120,0,196.2163,77.8571,319.9086,0,0,0,2,0,0,0,77.8571,53.4871,1.4027,-24.3699,10,
108,1,3,1,121,0,315.19,49.7712,258.7119,0,0,0,2,0,0,0,49.7712,241.5922,1.097,-168.179,0,
108,1,3,1,122,0,256.3059,75.474,107.2548,0,0,0,1,0,0,0,256.3059,223.7349,0.61798,-32.571,0,
108,1,3,1,123,1,46.3872,285.0305,346.8736,2,1,3,2,1,0,0,285.0305,325.0744,0.70821,40.0439,0,
108,1,3,1,124,0,105.9184,319.3083,75.1632,0,0,0,1,0,0,0,105.9184,124.1626,0.87489,18.2442,20,
108,1,3,1,125,1,106.5588,195.2766,18.769,3,2,1,3,1,0,0,18.769,9.1423,0.87477,-9.6266,30,
108,1,3,1,126,1,139.8817,17.9662,316.522,2,3,1,1,0,0,1,139.8817,180.4968,0.81933,40.6151,0,
108,1,3,1,127,1,108.4447,349.7301,229.3677,3,1,2,3,1,0,0,229.3677,210.4719,0.93039,-18.8958,20,
108,1,3,1,128,1,319.9646,15.8124,75.5678,1,2,3,1,1,0,0,319.9646,316.4341,1.0208,-3.5306,30,
108,1,3,1,129,0,317.5047,196.66,135.8694,0,0,0,1,0,0,0,317.5047,310.579,0.83322,-6.9257,30,
108,1,3,1,130,0,287.6892,169.3546,108.6142,0,0,0,1,0,0,0,287.6892,322.2906,1.0277,34.6014,0,
108,1,3,1,131,1,347.3686,289.756,46.2448,2,1,3,2,1,0,0,289.756,318.3896,0.85403,28.6336,10,
108,1,3,1,132,1,167.2609,19.246,46.9522,2,1,3,2,1,0,0,19.246,23.956,0.95822,4.71,30,
108,1,3,1,133,1,197.6056,138.8715,165.6013,1,2,3,1,1,0,0,197.6056,208.0853,0.89574,10.4797,30,
108,1,3,1,134,1,167.5071,256.385,287.6698,1,2,3,2,0,1,0,256.385,279.5809,1.1318,23.1959,10,
108,1,3,1,135,1,75.2679,196.8753,288.875,1,2,3,3,0,0,1,288.875,198.4956,1.7846,-90.3793,0,
108,1,3,1,136,0,197.5604,348.6066,259.6442,0,0,0,1,0,0,0,197.5604,272.7285,0.95133,75.1681,0,
108,1,3,1,137,0,168.4379,109.9343,348.8497,0,0,0,3,0,0,0,348.8497,20.2144,1.5693,31.3648,0,
108,1,3,1,138,1,198.6208,258.0684,348.9148,2,3,1,2,1,0,0,258.0684,303.2501,2.4372,45.1817,0,
108,1,3,1,139,1,345.3642,288.7561,229.1559,1,2,3,1,1,0,0,345.3642,180,0.70137,-165.3642,0,
108,1,3,1,140,1,229.1626,289.9769,348.2488,1,2,3,2,0,1,0,289.9769,280.9978,1.1804,-8.9791,30,
108,1,3,1,141,0,196.0322,256.693,137.8706,0,0,0,1,0,0,0,196.0322,209.6114,0.93745,13.5793,20,
108,1,3,1,142,0,137.2949,199.3049,318.3042,0,0,0,2,0,0,0,199.3049,16.2768,0.81929,176.9719,0,
108,1,3,1,143,0,319.5075,166.5917,77.9854,0,0,0,1,0,0,0,319.5075,183.3583,1.229,-136.1491,0,
108,1,3,1,144,1,198.7463,49.2093,255.8344,3,2,1,1,0,0,1,198.7463,239.291,1.3123,40.5448,0,
108,1,3,1,145,1,47.6562,169.7795,195.3334,1,2,3,1,1,0,0,47.6562,51.1777,0.99993,3.5214,30,
108,1,3,1,146,0,285.7627,255.7778,345.4478,0,0,0,2,0,0,0,255.7778,34.9078,1.3956,139.1301,0,
108,1,3,1,147,1,346.1715,287.3235,18.0969,3,2,1,3,1,0,0,18.0969,0.22992,0.56246,-17.867,20,
108,1,3,1,148,1,286.6012,47.4647,76.1083,1,2,3,2,0,1,0,47.4647,39.1428,0.75695,-8.3219,30,
108,1,3,1,149,0,169.9519,135.1685,257.1213,0,0,0,1,0,0,0,169.9519,171.8331,1.104,1.8812,40,
108,1,3,1,150,1,135.5186,76.8876,286.3143,2,3,1,2,1,0,0,76.8876,55.6392,0.61801,-21.2484,10,
108,1,3,1,151,1,136.9241,15.8132,228.9838,2,3,1,1,0,0,1,136.9241,149.3691,0.8333,12.445,20,
108,1,3,1,152,1,256.3422,16.2905,47.405,1,3,2,1,1,0,0,256.3422,239.3507,0.68747,-16.9915,20,
108,1,3,1,153,1,46.019,79.9667,135.4681,3,1,2,3,1,0,0,135.4681,196.7992,0.70825,61.3311,0,
108,1,3,1,154,1,139.2935,49.6024,78.7542,2,3,1,2,1,0,0,49.6024,49.3487,0.92353,-0.25368,40,
108,1,3,1,155,0,287.1087,317.0566,79.7957,0,0,0,2,0,0,0,317.0566,342.6641,0.81925,25.6075,10,
108,1,3,1,156,0,108.3266,79.8213,348.3558,0,0,0,3,0,0,0,348.3558,331.2367,0.80552,-17.119,20,
108,1,3,1,157,1,75.3655,287.9028,346.4351,2,1,3,2,1,0,0,287.9028,336.326,0.9652,48.4232,0,
108,1,3,1,158,0,198.7184,106.9255,16.2575,0,0,0,3,0,0,0,16.2575,24.0973,1.2151,7.8398,30,
108,1,3,1,159,1,19.4394,316.2826,169.834,3,1,2,2,0,0,1,316.2826,309.1582,1.3748,-7.1244,30,
108,1,3,1,160,1,198.7854,49.4316,347.3611,1,3,2,1,1,0,0,198.7854,202.5403,0.77767,3.7549,30,
108,1,3,1,161,1,256.8834,287.5216,198.8175,3,2,1,3,1,0,0,198.8175,196.4914,1.2083,-2.326,40,
108,1,3,1,162,1,15.4179,197.5633,289.1643,2,1,3,2,1,0,0,197.5633,174.9411,1.0207,-22.6222,10,
108,1,3,1,163,0,225.9814,285.6068,317.7185,0,0,0,3,0,0,0,317.7185,305.2551,0.95821,-12.4633,20,
108,1,3,1,164,1,226.822,15.8574,348.9768,2,1,3,2,1,0,0,15.8574,14.9608,0.95129,-0.89662,40,
108,1,3,1,165,0,108.4765,49.8046,227.7316,0,0,0,2,0,0,0,49.8046,35.5294,1.1457,-14.2751,20,
108,1,3,1,166,1,139.2915,349.5471,169.8083,2,1,3,2,1,0,0,349.5471,331.4907,1.0832,-18.0563,20,
108,1,3,1,167,0,317.665,166.6339,78.011,0,0,0,3,0,0,0,78.011,56.0863,0.85421,-21.9246,10,
108,1,3,1,168,1,45.8568,286.6499,19.8324,3,1,2,1,0,1,0,45.8568,41.953,1.2151,-3.9038,30,
108,1,3,1,169,1,106.7704,226.3312,346.4575,1,2,3,1,1,0,0,106.7704,145.2255,1.3124,38.4551,0,
108,1,3,1,170,0,49.4181,287.1224,18.0363,0,0,0,1,0,0,0,49.4181,50.4501,1.0902,1.032,40,
108,1,3,1,171,1,17.7364,197.7674,108.1529,2,3,1,2,1,0,0,197.7674,176.3338,1.3679,-21.4336,10,
108,1,3,1,172,1,345.4081,166.3724,229.3376,1,3,2,1,1,0,0,345.4081,164.5201,1.0693,179.112,0,
108,1,3,1,173,0,198.8857,346.9197,288.5578,0,0,0,2,0,0,0,346.9197,331.5929,0.8957,-15.3268,20,
108,1,3,1,174,1,285.827,225.908,348.4572,3,2,1,3,1,0,0,348.4572,182.975,1.1388,-165.4822,0,
108,1,3,1,175,1,165.0106,319.7555,18.8315,1,3,2,1,1,0,0,165.0106,176.5267,1.1734,11.516,30,
108,1,3,1,176,1,45.903,107.8665,75.8178,2,1,3,3,0,0,1,75.8178,45.1709,1.3193,-30.6469,0,
108,1,3,1,177,1,46.1465,285.9111,225.8318,2,3,1,2,1,0,0,285.9111,306.4291,1.1457,20.518,20,
108,1,3,1,178,0,108.3036,169.7062,19.8785,0,0,0,2,0,0,0,169.7062,182.1753,1.2915,12.4691,20,
108,1,3,1,179,0,259.2268,109.3944,138.7309,0,0,0,2,0,0,0,109.3944,141.5663,1.2014,32.1719,0,
108,1,3,1,180,1,17.2394,78.5482,169.7217,2,1,3,3,0,0,1,169.7217,146.3929,1.6249,-23.3287,10,
108,1,4,1,181,0,228.2734,195.1307,18.9289,0,0,0,3,0,0,0,18.9289,29.4203,1.0694,10.4914,30,
108,1,4,1,182,0,109.9695,258.0224,229.7245,0,0,0,2,0,0,0,258.0224,227.6377,1.2013,-30.3847,0,
108,1,4,1,183,1,285.552,166.0832,199.0551,1,3,2,3,0,1,0,199.0551,176.9049,1.618,-22.1502,10,
108,1,4,1,184,1,108.221,255.3397,226.0396,1,3,2,2,0,0,1,255.3397,242.5282,1.2499,-12.8116,20,
108,1,4,1,185,1,319.6343,15.0415,79.1231,3,2,1,3,1,0,0,79.1231,44.1593,1.2636,-34.9639,0,
108,1,4,1,186,0,289.6135,166.6016,349.2877,0,0,0,1,0,0,0,289.6135,311.0502,1.111,21.4366,10,
108,1,4,1,187,0,135.0642,315.9331,77.4262,0,0,0,2,0,0,0,315.9331,323.4221,0.98603,7.489,30,
108,1,4,1,188,1,137.8393,227.1325,45.3812,2,1,3,2,1,0,0,227.1325,230.3288,1.1317,3.1963,30,
108,1,4,1,189,0,169.7982,15.4454,288.9887,0,0,0,1,0,0,0,169.7982,152.6064,1.2013,-17.1918,20,
108,1,4,1,190,0,137.5494,76.9126,259.5274,0,0,0,3,0,0,0,259.5274,311.8121,0.86098,52.2847,0,
108,1,4,1,191,0,345.9222,75.2283,289.4252,0,0,0,3,0,0,0,289.4252,278.1146,1.1249,-11.3106,30,
108,1,4,1,192,1,48.1135,105.3177,286.8675,2,3,1,2,1,0,0,105.3177,79.606,0.80546,-25.7117,10,
108,1,4,1,193,1,76.7084,347.7434,17.3027,1,2,3,1,1,0,0,76.7084,51.0657,1.0971,-25.6427,10,
108,1,4,1,194,1,257.1951,105.7453,195.1414,2,1,3,2,1,0,0,105.7453,95.887,0.8263,-9.8583,30,
108,1,4,1,195,0,317.404,105.3326,79.4889,0,0,0,2,0,0,0,105.3326,88.2712,0.97215,-17.0614,20,
108,1,4,1,196,0,76.7007,169.5946,107.2813,0,0,0,3,0,0,0,107.2813,139.3152,1.6804,32.0338,0,
108,1,4,1,197,0,347.9954,168.0078,108.2471,0,0,0,3,0,0,0,108.2471,120.5695,1.3056,12.3224,20,
108,1,4,1,198,0,136.8788,169.3173,286.4599,0,0,0,1,0,0,0,136.8788,164.0855,1.236,27.2067,10,
108,1,4,1,199,1,196.4215,17.1766,229.5188,1,3,2,1,1,0,0,196.4215,204.3211,1.368,7.8997,30,
108,1,4,1,200,1,287.6707,136.834,196.8197,2,1,3,1,0,1,0,287.6707,218.5178,1.1734,-69.1529,0,
108,1,4,1,201,1,229.9196,49.8989,16.2508,2,3,1,2,1,0,0,49.8989,47.6869,0.97221,-2.212,40,
108,1,4,1,202,0,195.0178,169.0762,228.1921,0,0,0,2,0,0,0,169.0762,203.5931,2.0692,34.5169,0,
108,1,4,1,203,0,257.3316,289.7577,49.825,0,0,0,2,0,0,0,289.7577,307.3588,1.257,17.6011,20,
108,1,4,1,204,0,259.0554,288.5523,139.8512,0,0,0,3,0,0,0,139.8512,324.5075,0.98605,-175.3437,0,
108,1,4,1,205,1,286.2257,165.3206,76.3157,1,2,3,2,0,1,0,165.3206,139.1012,1.493,-26.2194,10,
108,1,4,1,206,1,315.0382,228.0546,17.0404,3,2,1,1,0,0,1,315.0382,140.7689,1.361,-174.2693,0,
108,1,4,1,207,1,108.5521,168.4433,16.6047,1,2,3,1,1,0,0,108.5521,132.308,0.65965,23.7558,10,
108,1,4,1,208,1,75.8955,138.1723,319.8148,3,2,1,1,0,0,1,75.8955,94.2119,0.72916,18.3164,20,
108,1,4,1,209,1,169.5658,108.4126,319.7337,1,2,3,1,1,0,0,169.5658,161.1937,0.84711,-8.3721,30,
108,1,4,1,210,0,315.4142,19.752,75.0819,0,0,0,3,0,0,0,75.0819,44.7838,1.2985,-30.2981,0,
108,1,4,1,211,1,317.3943,106.5406,48.7222,2,3,1,3,0,1,0,48.7222,61.6267,0.95823,12.9045,20,
108,1,4,1,212,1,286.3409,257.7512,45.9026,3,2,1,1,0,0,1,286.3409,290.8033,1.111,4.4623,30,
108,1,4,1,213,1,77.0324,49.759,139.5599,1,3,2,1,1,0,0,77.0324,84.9591,0.6597,7.9267,30,
108,1,4,1,214,0,318.0144,166.8875,138.3247,0,0,0,1,0,0,0,318.0144,315.9891,1.1805,-2.0252,40,
108,1,4,1,215,1,198.4041,109.616,45.7642,2,3,1,3,0,1,0,45.7642,20.6847,1.1526,-25.0795,10,
108,1,4,1,216,1,45.5504,196.3961,258.8382,1,2,3,1,1,0,0,45.5504,58.2397,0.89569,12.6892,20,
108,1,4,1,217,1,226.2324,48.3037,346.647,2,3,1,2,1,0,0,48.3037,45.0423,0.84714,-3.2613,30,
108,1,4,1,218,0,49.0048,137.7749,107.0944,0,0,0,2,0,0,0,137.7749,119.3546,0.96522,-18.4203,20,
108,1,4,1,219,0,167.4934,18.693,255.0638,0,0,0,1,0,0,0,167.4934,156.9009,1.3054,-10.5925,30,
108,1,4,1,220,0,288.6709,195.521,228.9629,0,0,0,2,0,0,0,195.521,172.679,1.3123,-22.8421,10,
108,1,4,1,221,0,165.2439,196.5692,108.2082,0,0,0,2,0,0,0,196.5692,191.225,1.0209,-5.3442,30,
108,1,4,1,222,0,48.3979,197.8389,288.2589,0,0,0,3,0,0,0,288.2589,297.1033,1.7914,8.8445,30,
108,1,4,1,223,1,109.8933,45.5568,136.9804,1,3,2,1,1,0,0,109.8933,120.3479,0.90965,10.4546,30,
108,1,4,1,224,1,78.9946,289.6512,345.0236,1,3,2,1,1,0,0,78.9946,87.7292,0.86805,8.7346,30,
108,1,4,1,225,1,165.1751,197.0274,76.2483,3,1,2,3,1,0,0,76.2483,45.7707,0.90269,-30.4776,0,
108,1,4,1,226,0,138.6715,347.4974,169.7165,0,0,0,3,0,0,0,169.7165,153.9569,1.2082,-15.7596,20,
108,1,4,1,227,1,167.6721,77.1758,345.7885,2,3,1,2,1,0,0,77.1758,51.2009,0.79857,-25.9749,10,
108,1,4,1,228,0,79.4084,198.6705,227.0322,0,0,0,2,0,0,0,198.6705,188.519,0.79155,-10.1514,30,
108,1,4,1,229,1,256.2999,78.9343,137.5579,2,3,1,1,0,0,1,256.2999,260.3191,0.85405,4.0192,30,
108,1,4,1,230,1,258.2465,78.8143,167.8784,1,2,3,1,1,0,0,258.2465,265.9402,0.86801,7.6937,30,
108,1,4,1,231,0,315.1631,197.1487,45.1863,0,0,0,3,0,0,0,45.1863,213.4517,1.1596,168.2654,0,
108,1,4,1,232,0,166.0708,105.0193,259.4029,0,0,0,2,0,0,0,105.0193,95.9253,0.8957,-9.094,30,
108,1,4,1,233,0,285.4293,17.6559,49.4428,0,0,0,1,0,0,0,285.4293,304.1797,1.104,18.7504,20,
108,1,4,1,234,1,137.0614,166.811,48.907,3,2,1,3,1,0,0,48.907,49.4715,0.81936,0.5645,40,
108,1,4,1,235,0,258.397,19.884,195.6273,0,0,0,3,0,0,0,195.6273,212.8322,2.2012,17.2049,20,
108,1,4,1,236,0,167.6627,229.6285,109.4954,0,0,0,3,0,0,0,109.4954,151.9907,1.0624,42.4953,0,
108,1,4,1,237,1,289.3028,79.6955,258.401,1,3,2,3,0,1,0,258.401,118.5849,1.5554,-139.8161,0,
108,1,4,1,238,1,167.6572,228.169,345.0705,2,1,3,2,1,0,0,228.169,213.4456,1.4721,-14.7234,20,
108,1,4,1,239,1,78.7617,259.4745,169.2092,1,2,3,1,1,0,0,78.7617,82.432,0.88879,3.6703,30,
108,1,4,1,240,1,138.6643,105.5838,18.7302,2,1,3,1,0,1,0,138.6643,128.082,0.69443,-10.5823,30,
108,1,5,1,241,1,167.0559,316.1824,255.9753,2,1,3,2,1,0,0,316.1824,327.6803,1.0416,11.4978,30,
108,1,5,1,242,1,225.5146,49.9844,196.7948,1,2,3,1,1,0,0,225.5146,223.4336,1.1041,-2.081,40,
108,1,5,1,243,1,77.9323,198.8902,258.6385,2,1,3,2,1,0,0,198.8902,189.5476,1.729,-9.3426,30,
108,1,5,1,244,1,228.7567,317.6118,347.4522,1,2,3,2,0,1,0,317.6118,176.4172,1.1665,-141.1946,0,
108,1,5,1,245,1,16.2011,225.3515,286.5002,3,1,2,3,1,0,0,286.5002,301.9779,0.55552,15.4777,20,
108,1,5,1,246,0,166.4226,49.1528,229.0918,0,0,0,1,0,0,0,166.4226,174.0509,0.69451,7.6283,30,
108,1,5,1,247,1,48.2004,108.9378,136.35,3,2,1,3,1,0,0,136.35,166.6217,0.61807,30.2717,0,
108,1,5,1,248,1,135.4472,258.6564,229.5193,1,2,3,3,0,0,1,229.5193,126.4428,0.90967,-103.0764,0,
108,1,5,1,249,1,139.9175,46.2417,348.0318,3,1,2,2,0,0,1,46.2417,32.3594,0.78462,-13.8823,20,
108,1,5,1,250,1,287.9163,196.3027,345.4241,2,1,3,1,0,1,0,287.9163,287.6149,1.0971,-0.30137,40,
108,1,5,1,251,0,199.6498,106.4098,345.8444,0,0,0,1,0,0,0,199.6498,190.4079,0.98593,-9.2418,30,
108,1,5,1,252,0,169.1344,316.5048,346.9194,0,0,0,3,0,0,0,346.9194,304.534,0.97211,-42.3854,0,
108,1,5,1,253,0,195.6162,138.6794,225.7831,0,0,0,2,0,0,0,138.6794,126.8886,0.8263,-11.7907,30,
108,1,5,1,254,1,105.6737,316.6189,199.7527,3,2,1,1,0,0,1,105.6737,119.9856,0.99982,14.3119,20,
108,1,5,1,255,0,319.0859,286.8877,49.863,0,0,0,1,0,0,0,319.0859,303.0962,0.86101,-15.9897,20,
108,1,5,1,256,1,169.9745,197.4529,47.5173,3,2,1,1,0,0,1,169.9745,165.2907,0.67356,-4.6838,30,
108,1,5,1,257,1,108.6293,256.6972,346.3634,3,1,2,3,1,0,0,346.3634,335.2933,0.9791,-11.0701,30,
108,1,5,1,258,1,315.1454,285.681,18.4728,1,3,2,2,0,0,1,285.681,334.3813,0.7916,48.7003,0,
108,1,5,1,259,0,345.3735,195.9123,165.1584,0,0,0,2,0,0,0,195.9123,167.7065,0.95127,-28.2058,10,
108,1,5,1,260,1,48.6624,345.8147,229.6054,1,3,2,3,0,1,0,229.6054,177.2995,1.5207,-52.3059,0,
108,1,5,1,261,1,75.0066,49.9063,17.851,1,3,2,1,1,0,0,75.0066,69.5318,0.90273,-5.4747,30,
108,1,5,1,262,1,108.7804,256.4412,78.0309,1,3,2,1,1,0,0,108.7804,115.292,1.1805,6.5116,30,
108,1,5,1,263,0,136.1479,165.0346,318.8332,0,0,0,2,0,0,0,165.0346,176.3879,1.5277,11.3534,30,
108,1,5,1,264,1,197.5948,19.1099,348.1851,3,1,2,2,0,0,1,19.1099,8.1136,0.97903,-10.9963,30,
108,1,5,1,265,0,107.0495,196.8559,226.1343,0,0,0,1,0,0,0,107.0495,127.7693,0.85411,20.7198,20,
108,1,5,1,266,0,168.9651,139.0778,48.7606,0,0,0,3,0,0,0,48.7606,71.2025,0.90267,22.4419,10,
108,1,5,1,267,0,317.7818,139.8454,168.4456,0,0,0,1,0,0,0,317.7818,300.6909,0.88189,-17.0909,20,
108,1,5,1,268,0,345.0331,197.9865,288.2959,0,0,0,2,0,0,0,197.9865,176.4574,1.1319,-21.5291,10,
108,1,5,1,269,1,168.9406,229.348,288.9377,2,3,1,2,1,0,0,229.348,218.3653,0.97905,-10.9828,30,
108,1,5,1,270,0,165.9414,106.621,288.5802,0,0,0,1,0,0,0,165.9414,174.1705,0.66658,8.2291,30,
108,1,5,1,271,1,168.5983,256.5138,47.2951,3,1,2,3,1,0,0,47.2951,29.0352,0.81244,-18.2599,20,
108,1,5,1,272,1,17.1214,319.5277,287.0866,3,1,2,3,1,0,0,287.0866,308.8878,0.63197,21.8012,10,
108,1,5,1,273,1,285.9294,16.4572,317.3083,2,3,1,2,1,0,0,16.4572,11.9705,0.6458,-4.4867,30,
108,1,5,1,274,1,135.8698,195.5877,105.8702,3,2,1,3,1,0,0,105.8702,120.6199,1.4304,14.7498,20,
108,1,5,1,275,0,107.3868,259.4494,195.3254,0,0,0,1,0,0,0,107.3868,111.0118,0.68053,3.625,30,
108,1,5,1,276,0,136.9238,347.8132,168.1692,0,0,0,3,0,0,0,168.1692,141.2945,1.493,-26.8747,10,
108,1,5,1,277,0,227.7422,136.0392,108.9229,0,0,0,1,0,0,0,227.7422,224.1239,0.73614,-3.6183,30,
108,1,5,1,278,1,138.9978,348.9808,289.7704,3,1,2,3,1,0,0,289.7704,311.6464,0.9166,21.876,10,
108,1,5,1,279,1,136.8617,167.0285,17.1941,1,3,2,1,1,0,0,136.8617,146.0621,1.0207,9.2004,30,
108,1,5,1,280,1,318.5183,259.5948,138.3004,1,3,2,1,1,0,0,318.5183,307.176,1.2082,-11.3423,30,
108,1,5,1,281,0,225.1476,257.3617,288.3922,0,0,0,1,0,0,0,225.1476,279.4664,1.9303,54.3188,0,
108,1,5,1,282,1,19.5042,105.6908,48.9704,3,1,2,3,1,0,0,48.9704,40.2101,1.0484,-8.7603,30,
108,1,5,1,283,1,45.9366,77.7282,136.2756,3,1,2,1,0,1,0,45.9366,29.568,0.63176,-16.3686,20,
108,1,5,1,284,1,169.4306,45.747,257.1734,3,1,2,3,1,0,0,257.1734,228.6596,1.0069,-28.5138,10,
108,1,5,1,285,1,287.5569,16.0754,106.7305,1,3,2,3,0,1,0,106.7305,122.835,0.84716,16.1045,20,
108,1,5,1,286,0,287.3987,75.9933,316.1951,0,0,0,3,0,0,0,316.1951,137.1335,1.0415,-179.0616,0,
108,1,5,1,287,1,259.6331,285.4745,76.8771,2,3,1,3,0,1,0,76.8771,59.0387,1.0068,-17.8384,20,
108,1,5,1,288,0,197.3872,316.5277,47.5817,0,0,0,3,0,0,0,47.5817,55.7366,1.2846,8.155,30,
108,1,5,1,289,0,319.7979,108.851,79.3751,0,0,0,1,0,0,0,319.7979,299.9329,1.2222,-19.8651,20,
108,1,5,1,290,0,16.3184,229.58,348.0752,0,0,0,2,0,0,0,229.58,244.8577,1.2013,15.2777,20,
108,1,5,1,291,1,347.7596,17.0191,198.7506,3,1,2,3,1,0,0,198.7506,182.2326,1.1735,-16.518,20,
108,1,5,1,292,1,229.2868,75.9901,315.778,2,3,1,2,1,0,0,75.9901,51.5042,0.61802,-24.4858,10,
108,1,5,1,293,1,76.7418,17.4316,258.3976,1,3,2,1,1,0,0,76.7418,83.0239,0.84716,6.2821,30,
108,1,5,1,294,0,139.9652,345.4822,196.5657,0,0,0,2,0,0,0,345.4822,350.6819,1.479,5.1998,30,
108,1,5,1,295,0,258.5304,135.1951,198.0815,0,0,0,3,0,0,0,198.0815,195.7283,1.2567,-2.3532,40,
108,1,5,1,296,0,79.9196,45.2887,106.9827,0,0,0,1,0,0,0,79.9196,69.5862,0.76382,-10.3334,30,
108,1,5,1,297,1,139.4131,317.1872,79.1748,1,2,3,1,1,0,0,139.4131,152.2469,1.1526,12.8338,20,
108,1,5,1,298,1,169.0204,227.8133,108.7544,2,1,3,3,0,0,1,108.7544,131.2857,1.1388,22.5313,10,
108,1,5,1,299,0,15.6194,315.9312,168.2325,0,0,0,1,0,0,0,15.6194,38.6021,0.94449,22.9827,10,
108,1,5,1,300,1,108.8763,47.9592,16.8809,2,3,1,2,1,0,0,47.9592,11.7159,0.78459,-36.2433,0,
108,1,6,1,301,1,46.9234,135.2004,227.9147,2,3,1,2,1,0,0,135.2004,149.075,1.1318,13.8746,20,
108,1,6,1,302,1,195.7893,347.5433,258.0165,3,1,2,3,1,0,0,258.0165,264.5617,0.77072,6.5452,30,
108,1,6,1,303,0,16.8971,197.9642,135.3425,0,0,0,2,0,0,0,197.9642,180.973,0.8888,-16.9913,20,
108,1,6,1,304,1,347.1749,287.7893,258.1939,3,2,1,3,1,0,0,258.1939,281.8483,0.68745,23.6544,10,
108,1,6,1,305,0,16.4771,196.8306,76.7452,0,0,0,3,0,0,0,76.7452,69.6963,0.79151,-7.0489,30,
108,1,6,1,306,1,317.1352,167.8886,349.4976,2,1,3,2,1,0,0,167.8886,152.3565,0.72909,-15.5321,20,
108,1,6,1,307,0,349.4673,318.2654,15.2014,0,0,0,2,0,0,0,318.2654,330.3301,0.68049,12.0646,20,
108,1,6,1,308,1,348.6462,168.243,137.3733,3,2,1,3,1,0,0,137.3733,144.2583,1.3332,6.885,30,
108,1,6,1,309,1,136.4477,45.0925,348.5075,1,3,2,1,1,0,0,136.4477,130.7424,0.98602,-5.7053,30,
108,1,6,1,310,0,315.7111,256.8779,168.9678,0,0,0,2,0,0,0,256.8779,235.8466,1.354,-21.0313,10,
108,1,6,1,311,1,169.758,196.7334,286.4866,3,2,1,3,1,0,0,286.4866,306.1854,0.72915,19.6988,20,
108,1,6,1,312,0,259.5246,346.4085,138.0694,0,0,0,3,0,0,0,138.0694,130.4103,1.6665,-7.6591,30,
108,1,6,1,313,0,225.0449,48.5914,257.2471,0,0,0,2,0,0,0,48.5914,56.264,0.60415,7.6726,30,
108,1,6,1,314,0,109.9422,346.2555,196.5774,0,0,0,1,0,0,0,109.9422,120.8767,1.0277,10.9345,30,
108,1,6,1,315,1,46.3042,227.4654,109.2792,2,3,1,2,1,0,0,227.4654,216.2772,0.618,-11.1882,30,
108,1,6,1,316,0,257.3016,227.5784,76.36,0,0,0,3,0,0,0,76.36,105.6119,0.77773,29.2519,10,
108,1,6,1,317,0,257.7944,16.1293,135.5226,0,0,0,2,0,0,0,16.1293,50.3161,1.2707,34.1868,0,
108,1,6,1,318,1,19.299,47.9853,288.2738,3,2,1,1,0,0,1,19.299,47.5119,1.111,28.2128,10,
108,1,6,1,319,1,195.14,255.3342,79.6353,2,1,3,3,0,0,1,79.6353,56.9912,1.118,-22.6441,10,
108,1,6,1,320,1,15.1824,255.3184,106.6144,2,1,3,2,1,0,0,255.3184,249.344,1.6595,-5.9744,30,
108,1,6,1,321,1,107.9897,225.1151,19.4971,3,2,1,3,1,0,0,19.4971,6.8082,0.97903,-12.6889,20,
108,1,6,1,322,1,197.2525,47.8892,285.3742,1,2,3,2,0,1,0,47.8892,70.0924,0.88183,22.2032,10,
108,1,6,1,323,1,17.2564,316.2498,139.7772,1,3,2,1,1,0,0,17.2564,36.7193,1.2777,19.4629,20,
108,1,6,1,324,0,17.2228,288.1376,347.6732,0,0,0,1,0,0,0,17.2228,18.9625,0.99988,1.7396,40,
108,1,6,1,325,1,317.5363,165.5686,257.4522,1,2,3,1,1,0,0,317.5363,308.2348,0.83324,-9.3016,30,
108,1,6,1,326,0,47.5541,317.8229,199.9686,0,0,0,1,0,0,0,47.5541,39.0338,0.95831,-8.5203,30,
108,1,6,1,327,0,106.6799,75.7242,346.2244,0,0,0,3,0,0,0,346.2244,350.8096,0.97913,4.5852,30,
108,1,6,1,328,1,169.2888,79.31,346.5665,3,2,1,3,1,0,0,346.5665,351.7468,0.6597,5.1803,30,
108,1,6,1,329,1,319.3634,106.4291,198.2842,3,1,2,3,1,0,0,198.2842,189.5335,1.2151,-8.7508,30,
108,1,6,1,330,0,349.5954,197.0535,78.6618,0,0,0,2,0,0,0,197.0535,205.4013,1.104,8.3478,30,
108,1,6,1,331,1,15.0076,347.81,287.7324,2,3,1,3,0,1,0,287.7324,291.1147,0.92355,3.3822,30,
108,1,6,1,332,1,285.9061,227.1312,255.4908,3,2,1,3,1,0,0,255.4908,262.3221,0.79158,6.8313,30,
108,1,6,1,333,0,345.6878,197.1204,228.8228,0,0,0,2,0,0,0,197.1204,205.0382,1.1873,7.9178,30,
108,1,6,1,334,0,165.8893,259.9342,75.085,0,0,0,3,0,0,0,75.085,83.7449,1.0069,8.6599,30,
108,1,6,1,335,1,18.1545,289.4599,318.367,2,1,3,2,1,0,0,289.4599,323.5007,0.64578,34.0408,0,
108,1,6,1,336,1,227.6908,319.5507,166.7535,2,3,1,2,1,0,0,319.5507,307.1996,0.76379,-12.3511,20,
108,1,6,1,337,1,256.578,109.9701,229.9195,3,1,2,3,1,0,0,229.9195,231.3595,0.89576,1.44,40,
108,1,6,1,338,1,258.626,319.1718,285.0945,1,2,3,1,1,0,0,258.626,255.3018,0.63186,-3.3242,30,
108,1,6,1,339,1,289.6574,136.8901,18.0884,3,2,1,2,0,1,0,136.8901,237.2605,1.854,100.3703,0,
108,1,6,1,340,1,107.9087,195.499,225.833,2,1,3,2,1,0,0,195.499,194.4206,1.2151,-1.0784,40,
108,1,6,1,341,0,19.4256,46.0482,167.4018,0,0,0,3,0,0,0,167.4018,157.5273,1.1666,-9.8745,30,
108,1,6,1,342,1,78.6958,106.2681,18.5963,3,1,2,2,0,0,1,106.2681,62.1952,0.71521,-44.0729,0,
108,1,6,1,343,0,258.1371,347.3141,105.6472,0,0,0,3,0,0,0,105.6472,137.3508,1.104,31.7036,0,
108,1,6,1,344,0,229.993,137.5676,346.9392,0,0,0,3,0,0,0,346.9392,354.6459,0.67356,7.7067,30,
108,1,6,1,345,1,199.8122,16.5687,48.9854,3,2,1,2,0,1,0,16.5687,34.6494,0.76378,18.0807,20,
108,1,6,1,346,1,49.5963,169.9447,79.663,3,1,2,3,1,0,0,79.663,36.3135,0.79857,-43.3495,0,
108,1,6,1,347,1,195.941,315.5034,346.4328,3,2,1,3,1,0,0,346.4328,326.0453,0.75691,-20.3876,20,
108,1,6,1,348,0,106.7758,228.1557,19.3227,0,0,0,2,0,0,0,228.1557,217.7286,1.4235,-10.4272,30,
108,1,6,1,349,1,16.1481,136.7947,46.8158,3,1,2,3,1,0,0,46.8158,24.052,0.6319,-22.7638,10,
108,1,6,1,350,0,346.4404,166.8831,225.7325,0,0,0,1,0,0,0,346.4404,316.9051,0.82634,-29.5354,10,
108,1,6,1,351,1,255.7971,226.3939,18.2247,3,1,2,3,1,0,0,18.2247,37.0734,1.0486,18.8487,20,
108,1,6,1,352,0,75.5483,347.8292,256.3717,0,0,0,3,0,0,0,256.3717,27.9188,0.8124,131.5471,0,
108,1,6,1,353,1,288.1388,77.2337,19.0555,1,2,3,2,0,1,0,77.2337,46.1348,0.83328,-31.0989,0,
108,1,6,1,354,1,196.9487,15.7521,166.6685,2,1,3,3,0,0,1,166.6685,185.8699,0.99995,19.2014,20,
108,1,6,1,355,1,106.9478,257.4507,79.4345,1,3,2,1,1,0,0,106.9478,101.3494,0.63883,-5.5985,30,
108,1,6,1,356,0,319.31,345.6282,258.2279,0,0,0,1,0,0,0,319.31,312.327,0.64591,-6.983,30,
108,1,6,1,357,1,138.9567,288.2831,107.7184,1,3,2,3,0,1,0,107.7184,130.8088,1.0277,23.0904,10,
108,1,6,1,358,1,315.156,289.1379,16.3213,2,3,1,3,0,1,0,16.3213,28.956,1.0971,12.6347,20,
108,1,6,1,359,1,258.0154,135.9201,225.4373,1,3,2,2,0,0,1,135.9201,137.708,0.89574,1.7879,40,
108,1,6,1,360,1,139.5235,198.8365,47.8133,3,1,2,3,1,0,0,47.8133,35.834,1.2221,-11.9793,30,
108,1,7,2,361,0,137.7436,195.0777,75.4734,0,0,0,2,0,0,0,195.0777,178.5889,1.3401,-16.4888,20,
108,1,7,2,362,1,256.7246,198.4634,348.583,2,3,1,2,1,0,0,198.4634,199.6102,0.59718,1.1468,40,
108,1,7,2,363,1,135.1638,79.2181,258.8515,3,2,1,2,0,1,0,79.2181,NaN,100000,999,0,
108,1,7,2,364,1,318.2542,229.9111,195.9692,2,1,3,2,1,0,0,229.9111,217.1063,0.95132,-12.8048,20,
108,1,7,2,365,1,108.4551,288.2361,228.1172,1,2,3,1,1,0,0,108.4551,121.5206,1.2847,13.0655,20,
108,1,7,2,366,1,346.1287,288.3308,49.3567,3,1,2,3,1,0,0,49.3567,37.5327,0.69438,-11.824,30,
108,1,7,2,367,0,228.7525,46.6696,168.1642,0,0,0,2,0,0,0,46.6696,52.5744,0.97214,5.9048,30,
108,1,7,2,368,1,226.3755,139.1398,258.9639,1,2,3,1,1,0,0,226.3755,228.8743,0.79851,2.4988,40,
108,1,7,2,369,0,79.0965,319.6324,17.5706,0,0,0,1,0,0,0,79.0965,88.9926,0.59025,9.8961,30,
108,1,7,2,370,0,319.6235,15.2778,76.9202,0,0,0,2,0,0,0,15.2778,46.6632,0.63186,31.3855,0,
108,1,7,2,371,1,319.6585,285.5445,48.2585,2,3,1,2,1,0,0,285.5445,15.8954,0.71521,90.3509,0,
108,1,7,2,372,1,106.2626,258.2717,15.3005,2,1,3,2,1,0,0,258.2717,300.2037,0.80551,41.932,0,
108,1,7,2,373,1,49.0672,258.9382,345.6216,3,2,1,3,1,0,0,345.6216,325.8035,1.3333,-19.8181,20,
108,1,7,2,374,1,166.1154,197.5488,18.9387,2,3,1,2,1,0,0,197.5488,306.9238,0.82627,109.3749,0,
108,1,7,2,375,1,135.6449,196.0742,226.4641,2,1,3,2,1,0,0,196.0742,188.3997,0.95123,-7.6745,30,
108,1,7,2,376,0,258.7972,46.9971,227.8371,0,0,0,3,0,0,0,227.8371,224.5113,1.0624,-3.3258,30,
108,1,7,2,377,1,19.3937,136.9647,106.2132,2,3,1,1,0,0,1,19.3937,20.8089,0.93731,1.4153,40,
108,1,7,2,378,1,198.1299,16.6345,346.5555,1,3,2,1,1,0,0,198.1299,201.7608,0.77081,3.6309,30,
108,1,7,2,379,0,255.9533,317.2465,78.8433,0,0,0,2,0,0,0,317.2465,327.0588,0.95818,9.8123,30,
108,1,7,2,380,1,106.7368,288.8994,198.5417,2,1,3,2,1,0,0,288.8994,309.7719,0.90269,20.8725,20,
108,1,7,2,381,0,226.6913,289.8702,169.7739,0,0,0,3,0,0,0,169.7739,159.846,0.9513,-9.9279,30,
108,1,7,2,382,1,75.0635,45.6611,226.9403,2,3,1,3,0,1,0,226.9403,NaN,100000,999,0,
108,1,7,2,383,0,195.7207,48.1759,349.0121,0,0,0,1,0,0,0,195.7207,209.7895,0.72219,14.0688,20,
108,1,7,2,384,1,135.4763,286.2294,199.6733,3,1,2,1,0,1,0,135.4763,NaN,100000,999,0,
108,1,7,2,385,1,107.2227,346.6329,286.4365,3,2,1,1,0,0,1,107.2227,61.641,1.479,-45.5817,0,
108,1,7,2,386,0,167.3073,257.9357,47.388,0,0,0,1,0,0,0,167.3073,166.3654,1.0276,-0.94186,40,
108,1,7,2,387,1,105.1816,45.943,347.8877,1,3,2,1,1,0,0,105.1816,116.813,0.8333,11.6314,30,
108,1,7,2,388,0,197.7527,139.9306,168.4489,0,0,0,2,0,0,0,139.9306,113.1889,0.69438,-26.7417,10,
108,1,7,2,389,0,106.463,49.1621,137.8526,0,0,0,3,0,0,0,137.8526,123.7231,0.89577,-14.1295,20,
108,1,7,2,390,1,18.0356,289.7875,76.6533,2,1,3,2,1,0,0,289.7875,293.7207,1.0416,3.9333,30,
108,1,7,2,391,1,45.3576,315.0784,289.8684,3,2,1,3,1,0,0,289.8684,299.6627,0.81245,9.7943,30,
108,1,7,2,392,1,78.5901,105.9445,317.1697,3,1,2,2,0,0,1,105.9445,84.5736,0.72916,-21.3709,10,
108,1,7,2,393,0,319.7139,18.3713,226.9283,0,0,0,2,0,0,0,18.3713,345.4227,0.78464,-32.9486,0,
108,1,7,2,394,1,196.9913,225.6865,319.7638,2,3,1,1,0,0,1,196.9913,212.013,0.95825,15.0217,20,
108,1,7,2,395,1,75.4069,138.9374,255.872,1,2,3,3,0,0,1,255.872,195.3145,1.2636,-60.5575,0,
108,1,7,2,396,1,347.3247,229.1204,79.3594,2,3,1,3,0,1,0,79.3594,NaN,100000,999,0,
108,1,7,2,397,1,199.4692,169.205,48.4164,1,2,3,1,1,0,0,199.4692,210.352,0.66659,10.8828,30,
108,1,7,2,398,1,106.0224,15.3143,48.1119,3,2,1,3,1,0,0,48.1119,26.5734,0.76386,-21.5385,10,
108,1,7,2,399,0,347.7221,289.2307,45.2035,0,0,0,2,0,0,0,289.2307,314.5107,0.60412,25.28,10,
108,1,7,2,400,0,288.0459,259.8347,198.8666,0,0,0,3,0,0,0,198.8666,188.4735,1.3818,-10.3931,30,
108,1,7,2,401,1,138.5923,169.9766,75.4185,3,1,2,3,1,0,0,75.4185,63.7884,0.63883,-11.6301,30,
108,1,7,2,402,0,138.4918,47.2984,315.7883,0,0,0,2,0,0,0,47.2984,54.4503,1.7915,7.1519,30,
108,1,7,2,403,1,318.6274,135.6952,168.1628,1,3,2,1,1,0,0,318.6274,299.7212,0.89577,-18.9062,20,
108,1,7,2,404,1,198.2711,316.0916,345.5957,1,3,2,1,1,0,0,198.2711,200.4192,1.0416,2.1481,40,
108,1,7,2,405,0,19.5455,197.2517,168.7432,0,0,0,2,0,0,0,197.2517,183.2514,1.2499,-14.0003,20,
108,1,7,2,406,1,196.9978,48.2766,317.8342,2,3,1,3,0,1,0,317.8342,NaN,100000,999,0,
108,1,7,2,407,1,18.4428,258.0195,106.9348,2,3,1,1,0,0,1,18.4428,26.327,1.5901,7.8842,30,
108,1,7,2,408,0,18.089,137.9711,318.3294,0,0,0,3,0,0,0,318.3294,296.1771,0.80548,-22.1523,10,
108,1,7,2,409,0,285.4329,319.6342,15.7424,0,0,0,3,0,0,0,15.7424,24.2808,1.4304,8.5385,30,
108,1,7,2,410,1,167.2618,137.6668,287.6333,3,2,1,3,1,0,0,287.6333,283.9707,0.78465,-3.6626,30,
108,1,7,2,411,1,257.6176,76.6841,136.6619,2,1,3,1,0,1,0,257.6176,NaN,100000,999,0,
108,1,7,2,412,1,318.6127,255.6712,169.2655,2,1,3,2,1,0,0,255.6712,251.4083,1.0554,-4.2629,30,
108,1,7,2,413,0,195.6399,167.3218,78.713,0,0,0,3,0,0,0,78.713,42.279,0.78472,-36.434,0,
108,1,7,2,414,0,255.0215,348.2625,136.8484,0,0,0,3,0,0,0,136.8484,105.8725,1.2638,-30.9759,0,
108,1,7,2,415,1,169.2599,195.5886,108.2863,2,1,3,1,0,1,0,169.2599,NaN,100000,999,0,
108,1,7,2,416,0,108.0519,256.2399,137.5898,0,0,0,3,0,0,0,137.5898,135.5497,1.7706,-2.0401,40,
108,1,7,2,417,1,315.776,79.9704,137.2512,2,1,3,3,0,0,1,137.2512,139.1903,1.1249,1.9391,40,
108,1,7,2,418,0,109.5576,45.6649,285.2108,0,0,0,1,0,0,0,109.5576,111.7686,1.1527,2.211,40,
108,1,7,2,419,1,285.9982,227.6508,348.1368,1,2,3,1,1,0,0,285.9982,283.6654,1.2222,-2.3328,40,
108,1,7,2,420,1,285.1161,195.8806,349.3046,1,2,3,3,0,0,1,349.3046,349.2853,1.1666,-0.019333,40,
108,1,8,2,421,0,139.1592,226.9724,75.4832,0,0,0,1,0,0,0,139.1592,145.9506,0.97207,6.7913,30,
108,1,8,2,422,0,258.0006,19.9983,285.6459,0,0,0,3,0,0,0,285.6459,313.7496,0.84012,28.1037,10,
108,1,8,2,423,0,347.863,79.9688,136.8148,0,0,0,2,0,0,0,79.9688,50.3703,1.0347,-29.5985,10,
108,1,8,2,424,0,138.8927,289.0539,347.4898,0,0,0,1,0,0,0,138.8927,131.0804,1.2498,-7.8123,30,
108,1,8,2,425,1,139.122,45.8653,229.3182,2,3,1,2,1,0,0,45.8653,68.0753,0.85414,22.21,10,
108,1,8,2,426,1,138.0311,78.9619,49.1808,3,1,2,2,0,0,1,78.9619,51.9116,0.88886,-27.0503,10,
108,1,8,2,427,0,46.1867,195.6983,256.1037,0,0,0,1,0,0,0,46.1867,50.6934,1.1248,4.5067,30,
108,1,8,2,428,1,346.4768,289.5354,227.4644,2,1,3,2,1,0,0,289.5354,347.6311,1.3888,58.0957,0,
108,1,8,2,429,1,47.187,79.2999,15.0445,2,1,3,2,1,0,0,79.2999,73.0121,1.597,-6.2878,30,
108,1,8,2,430,1,79.2645,348.4328,109.7906,2,1,3,2,1,0,0,348.4328,353.5765,1.3957,5.1437,30,
108,1,8,2,431,1,166.9384,345.2837,198.4479,1,3,2,1,1,0,0,166.9384,162.7573,1.979,-4.1811,30,
108,1,8,2,432,1,46.1005,196.179,169.0506,1,2,3,2,0,1,0,196.179,NaN,100000,999,0,
108,1,8,2,433,0,285.1488,259.3335,319.4721,0,0,0,1,0,0,0,285.1488,313.4069,1.0277,28.2581,10,
108,1,8,2,434,1,315.0558,256.1726,168.5349,1,3,2,1,1,0,0,315.0558,316.2077,0.81245,1.1519,40,
108,1,8,2,435,0,138.3282,106.1507,49.0244,0,0,0,3,0,0,0,49.0244,45.9512,0.75686,-3.0732,30,
108,1,8,2,436,0,167.1549,138.8245,349.9823,0,0,0,3,0,0,0,349.9823,355.2732,0.74298,5.2909,30,
108,1,8,2,437,1,107.9765,77.5306,228.882,1,2,3,2,0,1,0,77.5306,NaN,100000,999,0,
108,1,8,2,438,1,165.7078,228.0405,49.6531,2,1,3,1,0,1,0,165.7078,NaN,100000,999,0,
108,1,8,2,439,1,348.1345,49.685,316.5997,3,1,2,3,1,0,0,316.5997,311.2165,1.2707,-5.3832,30,
108,1,8,2,440,1,75.7592,348.6651,45.1985,1,3,2,2,0,0,1,348.6651,349.202,1.2499,0.5369,40,
108,1,8,2,441,0,166.6833,319.4168,46.6683,0,0,0,1,0,0,0,166.6833,180,0.78464,13.3167,20,
108,1,8,2,442,0,78.6986,197.224,109.252,0,0,0,2,0,0,0,197.224,36.0072,1.0555,-161.2168,0,
108,1,8,2,443,1,227.4811,166.4383,105.9151,2,3,1,2,1,0,0,166.4383,179.6926,1.1597,13.2543,20,
108,1,8,2,444,0,226.7599,195.5008,288.965,0,0,0,3,0,0,0,288.965,283.739,0.99301,-5.226,30,
108,1,8,2,445,1,228.4323,319.7786,106.5395,3,1,2,3,1,0,0,106.5395,142.8599,1.0694,36.3204,0,
108,1,8,2,446,1,79.7326,317.4622,348.7411,2,1,3,2,1,0,0,317.4622,330.0662,0.97907,12.604,20,
108,1,8,2,447,0,45.9115,197.797,18.1324,0,0,0,2,0,0,0,197.797,202.7983,0.97904,5.0014,30,
108,1,8,2,448,1,18.6621,168.1551,287.341,1,3,2,3,0,1,0,287.341,NaN,100000,999,0,
108,1,8,2,449,1,136.0884,285.0426,346.5031,3,1,2,3,1,0,0,346.5031,330.6551,0.92353,-15.848,20,
108,1,8,2,450,1,315.1533,349.0435,225.2357,3,1,2,1,0,1,0,315.1533,NaN,100000,999,0,
108,1,8,2,451,1,138.6936,315.0693,168.3956,3,1,2,3,1,0,0,168.3956,169.3028,1.0277,0.90718,40,
108,1,8,2,452,1,46.0342,105.1868,78.3168,1,3,2,1,1,0,0,46.0342,57.5527,0.62493,11.5185,30,
108,1,8,2,453,1,165.0947,45.9217,15.1337,3,1,2,3,1,0,0,15.1337,10.028,0.73601,-5.1057,30,
108,1,8,2,454,1,348.5217,318.8731,289.1133,2,1,3,1,0,1,0,348.5217,NaN,100000,999,0,
108,1,8,2,455,1,139.6704,47.9709,317.9655,1,2,3,1,1,0,0,139.6704,141.1832,0.63188,1.5128,40,
108,1,8,2,456,1,286.0016,45.0729,168.8158,1,3,2,3,0,1,0,168.8158,NaN,100000,999,0,
108,1,8,2,457,0,195.2941,256.1198,15.8399,0,0,0,1,0,0,0,195.2941,209.5524,0.85411,14.2582,20,
108,1,8,2,458,1,138.5184,169.1855,258.6365,3,2,1,1,0,0,1,138.5184,144.5096,0.90964,5.9912,30,
108,1,8,2,459,0,19.902,108.5641,259.1282,0,0,0,1,0,0,0,19.902,12.7751,1.0763,-7.1269,30,
108,1,8,2,460,1,108.5872,226.0126,318.2188,3,1,2,3,1,0,0,318.2188,316.2213,0.63893,-1.9975,40,
108,1,8,2,461,0,19.6597,105.4666,288.6939,0,0,0,2,0,0,0,105.4666,76.7007,1.0069,-28.7659,10,
108,1,8,2,462,1,109.9663,18.7877,196.3753,1,2,3,2,0,1,0,18.7877,NaN,100000,999,0,
108,1,8,2,463,0,139.1878,168.7421,197.9193,0,0,0,3,0,0,0,197.9193,153.7035,1.4791,-44.2158,0,
108,1,8,2,464,0,136.7104,259.36,16.3401,0,0,0,1,0,0,0,136.7104,149.202,1.361,12.4916,20,
108,1,8,2,465,1,136.4382,79.6219,316.4924,2,1,3,2,1,0,0,79.6219,67.2848,0.56941,-12.3371,20,
108,1,8,2,466,1,196.6333,136.0981,167.5911,2,1,3,3,0,0,1,167.5911,152.7919,1.3609,-14.7993,20,
108,1,8,2,467,1,226.3809,318.4812,259.4068,2,1,3,2,1,0,0,318.4812,331.6129,0.85409,13.1317,20,
108,1,8,2,468,1,18.9916,169.3163,138.9898,1,3,2,1,1,0,0,18.9916,28.7456,0.71522,9.754,30,
108,1,8,2,469,1,15.3526,75.3001,108.3079,3,1,2,3,1,0,0,108.3079,57.1605,0.9374,-51.1474,0,
108,1,8,2,470,0,46.2786,346.8916,169.9687,0,0,0,1,0,0,0,46.2786,60.6487,0.9999,14.3701,20,
108,1,8,2,471,1,345.2622,106.6171,78.9984,3,2,1,1,0,0,1,345.2622,323.1322,1.0902,-22.1301,10,
108,1,8,2,472,0,348.2674,166.2214,78.7896,0,0,0,3,0,0,0,78.7896,53.9097,1.5762,-24.8799,10,
108,1,8,2,473,1,106.559,257.9588,76.8881,1,3,2,1,1,0,0,106.559,100.0054,0.80551,-6.5536,30,
108,1,8,2,474,0,317.6116,229.0412,257.2379,0,0,0,3,0,0,0,257.2379,261.282,1.243,4.0441,30,
108,1,8,2,475,0,287.5106,197.8513,19.2574,0,0,0,1,0,0,0,287.5106,286.759,1.4929,-0.75167,40,
108,1,8,2,476,1,227.7234,199.2796,318.2134,3,1,2,3,1,0,0,318.2134,310.5272,0.98594,-7.6862,30,
108,1,8,2,477,1,76.0947,286.1864,255.0432,2,3,1,2,1,0,0,286.1864,303.4637,0.94436,17.2773,20,
108,1,8,2,478,0,317.4562,198.8708,225.7391,0,0,0,3,0,0,0,225.7391,211.0711,1.2152,-14.668,20,
108,1,8,2,479,0,46.7157,195.3171,168.0624,0,0,0,1,0,0,0,46.7157,47.8403,0.76382,1.1246,40,
108,1,8,2,480,1,285.5423,79.2688,319.5543,2,1,3,2,1,0,0,79.2688,59.8183,0.88187,-19.4505,20,
