Subject,Session,Block,Condition,Trial,whetherCued,leftStim,rightStim,midStim,remCueLoc,fogCueLoc,neutralCueLoc,probeCueLoc,probeRem,probeForget,probeNeutral,Target,Estimate,RT,Error,Points
107,1,1,1,1,0,136.1214,256.3453,18.3652,0,0,0,2,0,0,0,256.3453,305.755,2.0484,49.4097,0,
107,1,1,1,2,0,289.4795,225.4954,105.2208,0,0,0,1,0,0,0,289.4795,329.2235,2.1318,39.7441,0,
107,1,1,1,3,1,347.5064,287.1586,109.9878,2,1,3,2,1,0,0,287.1586,261.5518,1.3748,-25.6069,10,
107,1,1,1,4,0,348.6529,108.2324,289.1658,0,0,0,1,0,0,0,348.6529,317.6046,1.764,-31.0484,0,
107,1,1,1,5,1,107.4617,228.4737,289.8637,3,2,1,3,1,0,0,289.8637,268.3822,1.4443,-21.4815,10,
107,1,1,1,6,1,138.3022,255.2378,226.7439,2,3,1,1,0,0,1,138.3022,135.1845,3.8263,-3.1177,30,
107,1,1,1,7,1,197.5189,257.448,49.3852,3,1,2,3,1,0,0,49.3852,44.3586,1.1596,-5.0267,30,
107,1,1,1,8,1,105.0963,165.4194,19.874,1,2,3,1,1,0,0,105.0963,126.0601,1.8751,20.9638,20,
107,1,1,1,9,0,349.6502,286.9951,105.237,0,0,0,1,0,0,0,349.6502,137.2608,1.6734,147.6106,0,
107,1,1,1,10,0,259.389,197.9122,285.3534,0,0,0,1,0,0,0,259.389,256.9644,1.4239,-2.4246,40,
107,1,1,1,11,1,317.5194,78.234,226.5387,2,1,3,2,1,0,0,78.234,64.0734,1.2082,-14.1606,20,
107,1,1,1,12,1,226.4331,199.0041,19.4806,2,1,3,2,1,0,0,199.0041,62.979,1.2082,-136.0251,0,
107,1,1,1,13,1,199.1477,319.2454,226.8627,1,2,3,1,1,0,0,199.1477,188.4227,1.2292,-10.7249,30,
107,1,1,1,14,1,198.7837,137.0852,229.8589,1,2,3,2,0,1,0,137.0852,116.7164,2.0346,-20.3689,20,
107,1,1,1,15,1,317.252,136.0284,79.4983,1,2,3,3,0,0,1,79.4983,61.5834,1.3887,-17.9148,20,
107,1,1,1,16,0,166.9501,227.4895,288.474,0,0,0,1,0,0,0,166.9501,182.5803,1.0555,15.6302,20,
107,1,1,1,17,0,255.5852,109.0734,346.6243,0,0,0,3,0,0,0,346.6243,350.3246,1.6666,3.7003,30,
107,1,1,1,18,1,19.1594,45.6717,75.3023,2,3,1,2,1,0,0,45.6717,46.7861,1.3888,1.1144,40,
107,1,1,1,19,1,139.9843,17.7677,197.5773,1,2,3,1,1,0,0,139.9843,142.7503,1.3122,2.7661,40,
107,1,1,1,20,1,169.6556,105.9539,16.2929,1,2,3,2,0,1,0,105.9539,111.3408,1.7221,5.3868,30,
107,1,1,1,21,0,198.6008,256.7345,227.585,0,0,0,1,0,0,0,198.6008,203.1992,1.805,4.5983,30,
107,1,1,1,22,0,47.1514,228.4688,289.7261,0,0,0,2,0,0,0,228.4688,232.3072,1.8401,3.8385,30,
107,1,1,1,23,0,288.3452,197.5011,346.09,0,0,0,1,0,0,0,288.3452,315.5777,1.972,27.2325,10,
107,1,1,1,24,1,229.3193,135.4885,169.5403,3,2,1,1,0,0,1,229.3193,316.6468,3.3816,87.3274,0,
107,1,1,1,25,1,137.5392,347.928,18.8144,1,2,3,1,1,0,0,137.5392,148.5606,1.6873,11.0214,30,
107,1,1,1,26,0,17.7694,108.4003,196.8359,0,0,0,2,0,0,0,108.4003,102.9063,1.9095,-5.494,30,
107,1,1,1,27,1,135.7013,16.3007,195.4341,3,2,1,3,1,0,0,195.4341,206.5138,2.0623,11.0797,30,
107,1,1,1,28,1,346.1034,285.0065,135.9459,1,2,3,2,0,1,0,285.0065,283.8563,2.7428,-1.1502,40,
107,1,1,1,29,0,105.3418,17.1816,75.8693,0,0,0,1,0,0,0,105.3418,123.6887,1.3609,18.347,20,
107,1,1,1,30,1,166.1401,16.8543,319.4546,2,3,1,2,1,0,0,16.8543,7.021,1.4446,-9.8333,30,
107,1,1,1,31,1,347.6621,78.5825,225.8965,2,3,1,1,0,0,1,347.6621,332.8004,1.9512,-14.8617,20,
107,1,1,1,32,1,169.6783,319.0936,48.6413,1,3,2,1,1,0,0,169.6783,173.8688,3.0067,4.1905,30,
107,1,1,1,33,1,108.812,17.8803,78.7383,3,1,2,3,1,0,0,78.7383,39.5092,2.153,-39.2292,0,
107,1,1,1,34,1,347.6614,136.397,49.7312,2,3,1,2,1,0,0,136.397,135.1878,2.8263,-1.2091,40,
107,1,1,1,35,0,78.6346,196.8692,47.9079,0,0,0,2,0,0,0,196.8692,197.6133,3.1802,0.74404,40,
107,1,1,1,36,0,45.7597,16.9855,196.8736,0,0,0,3,0,0,0,196.8736,185.2752,3.7844,-11.5985,30,
107,1,1,1,37,1,138.2116,316.1063,79.1853,2,1,3,2,1,0,0,316.1063,325.7122,1.486,9.6059,30,
107,1,1,1,38,0,319.2929,289.5553,168.4982,0,0,0,3,0,0,0,168.4982,163.6557,1.9581,-4.8424,30,
107,1,1,1,39,1,287.6468,199.1499,49.2938,3,1,2,2,0,0,1,199.1499,290.1789,1.3541,91.029,0,
107,1,1,1,40,1,169.2518,139.5582,198.1964,1,3,2,1,1,0,0,169.2518,179.2763,0.90266,10.0245,30,
107,1,1,1,41,1,169.1329,48.3844,286.038,3,2,1,3,1,0,0,286.038,305.6725,1.4786,19.6344,20,
107,1,1,1,42,1,287.2569,316.9132,48.9482,2,1,3,2,1,0,0,316.9132,140.055,1.0276,-176.8582,0,
107,1,1,1,43,0,228.7938,349.9761,315.9329,0,0,0,3,0,0,0,315.9329,305.2654,1.4721,-10.6675,30,
107,1,1,1,44,1,285.9688,47.1618,258.7458,2,1,3,2,1,0,0,47.1618,43.7709,1.5069,-3.3909,30,
107,1,1,1,45,0,19.6749,137.3974,346.159,0,0,0,2,0,0,0,137.3974,143.7147,1.9859,6.3173,30,
107,1,1,1,46,1,287.6548,259.506,317.7028,2,1,3,2,1,0,0,259.506,235.7076,1.16,-23.7985,10,
107,1,1,1,47,0,105.9911,165.9754,316.6342,0,0,0,3,0,0,0,316.6342,301.0134,1.7151,-15.6208,20,
107,1,1,1,48,1,109.0699,259.4922,77.1462,3,1,2,1,0,1,0,109.0699,330.4509,2.9029,-138.619,0,
107,1,1,1,49,1,315.4649,347.3174,285.0467,1,2,3,1,1,0,0,315.4649,332.2329,1.5762,16.768,20,
107,1,1,1,50,0,77.1828,225.2461,105.2482,0,0,0,1,0,0,0,77.1828,30.5376,1.7707,-46.6451,0,
107,1,1,1,51,1,17.3062,228.1966,259.5867,2,3,1,2,1,0,0,228.1966,53.0735,1.2082,-175.1231,0,
107,1,1,1,52,1,19.9049,195.6352,286.1612,1,3,2,1,1,0,0,19.9049,27.8957,2.1803,7.9908,30,
107,1,1,1,53,0,19.2845,75.217,318.4581,0,0,0,2,0,0,0,75.217,53.9857,2.236,-21.2312,10,
107,1,1,1,54,1,79.095,348.1246,228.6928,3,2,1,3,1,0,0,228.6928,224.309,2.8469,-4.3838,30,
107,1,1,1,55,1,49.4771,227.9126,257.9137,1,3,2,1,1,0,0,49.4771,41.2827,2.6039,-8.1944,30,
107,1,1,1,56,1,47.0319,136.931,228.049,2,1,3,3,0,0,1,228.049,227.7723,1.9308,-0.2767,40,
107,1,1,1,57,1,77.6151,16.6265,49.1592,2,3,1,2,1,0,0,16.6265,51.7213,1.1388,35.0948,0,
107,1,1,1,58,0,137.6428,345.2572,78.7844,0,0,0,2,0,0,0,345.2572,4.9989,1.4444,19.7417,20,
107,1,1,1,59,0,168.7425,317.7165,226.6907,0,0,0,2,0,0,0,317.7165,334.3105,1.9232,16.594,20,
107,1,1,1,60,1,315.1258,197.0721,138.657,2,1,3,3,0,0,1,138.657,141.2416,2.243,2.5846,40,
107,1,2,1,61,0,315.8145,169.192,195.8378,0,0,0,3,0,0,0,195.8378,150.4355,2.097,-45.4023,0,
107,1,2,1,62,0,109.7017,135.0292,228.0515,0,0,0,2,0,0,0,135.0292,77.5694,1.1248,-57.4598,0,
107,1,2,1,63,1,256.4523,47.0128,289.3103,1,3,2,3,0,1,0,289.3103,287.8815,1.6669,-1.4288,40,
107,1,2,1,64,1,319.2054,76.7725,167.1503,1,3,2,2,0,0,1,76.7725,68.7444,1.2708,-8.0282,30,
107,1,2,1,65,1,289.8173,135.4295,167.5025,3,2,1,3,1,0,0,167.5025,165.4767,2.2637,-2.0258,40,
107,1,2,1,66,0,46.5193,197.4165,346.6891,0,0,0,1,0,0,0,46.5193,48.0927,2.9026,1.5735,40,
107,1,2,1,67,0,79.9262,107.7974,169.668,0,0,0,2,0,0,0,107.7974,73.1883,1.1805,-34.6091,0,
107,1,2,1,68,1,135.5422,165.1806,228.0905,2,1,3,2,1,0,0,165.1806,111.0651,1.861,-54.1154,0,
107,1,2,1,69,0,259.4502,346.651,166.1485,0,0,0,1,0,0,0,259.4502,231.2747,1.7914,-28.1755,10,
107,1,2,1,70,0,135.5697,19.8928,79.243,0,0,0,3,0,0,0,79.243,63.6433,2.4238,-15.5997,20,
107,1,2,1,71,0,285.5402,17.2994,137.2544,0,0,0,3,0,0,0,137.2544,77.6248,1.3193,-59.6297,0,
107,1,2,1,72,1,138.7045,347.534,165.9996,2,3,1,2,1,0,0,347.534,344.6555,1.4649,-2.8784,40,
107,1,2,1,73,1,169.3879,345.0718,46.4715,1,2,3,1,1,0,0,169.3879,175.2472,1.2012,5.8593,30,
107,1,2,1,74,1,227.7164,78.5126,19.7822,2,1,3,2,1,0,0,78.5126,54.5457,1.1457,-23.9669,10,
107,1,2,1,75,0,78.8751,319.5709,48.9128,0,0,0,2,0,0,0,319.5709,323.872,1.7359,4.301,30,
107,1,2,1,76,0,48.4957,168.9813,137.2079,0,0,0,3,0,0,0,137.2079,144.2267,2.4442,7.0188,30,
107,1,2,1,77,0,315.7287,287.9252,345.3668,0,0,0,3,0,0,0,345.3668,318.8539,1.4721,-26.5129,10,
107,1,2,1,78,0,286.8252,226.5457,315.6046,0,0,0,1,0,0,0,286.8252,336.2123,2.389,49.3871,0,
107,1,2,1,79,1,256.6999,319.2336,46.2303,1,3,2,1,1,0,0,256.6999,233.8925,1.3263,-22.8075,10,
107,1,2,1,80,1,135.68,78.9445,105.462,2,1,3,1,0,1,0,135.68,132.6401,1.5207,-3.0399,30,
107,1,2,1,81,1,75.0988,319.8215,349.8519,2,3,1,2,1,0,0,319.8215,321.9703,2.229,2.1488,40,
107,1,2,1,82,0,19.6916,226.2771,107.6658,0,0,0,2,0,0,0,226.2771,210.5085,1.8959,-15.7686,20,
107,1,2,1,83,0,138.9798,226.1669,78.0042,0,0,0,2,0,0,0,226.1669,217.1616,2.3682,-9.0053,30,
107,1,2,1,84,0,346.4868,16.9821,317.1038,0,0,0,3,0,0,0,317.1038,294.7336,1.0485,-22.3702,10,
107,1,2,1,85,1,317.7541,79.3545,195.2113,1,2,3,2,0,1,0,79.3545,57.5618,1.1318,-21.7927,10,
107,1,2,1,86,1,47.5997,169.9459,257.4496,3,2,1,1,0,0,1,47.5997,190.1724,2.5205,142.5727,0,
107,1,2,1,87,1,79.0846,195.9474,105.6185,1,2,3,1,1,0,0,79.0846,50.7421,1.5971,-28.3425,10,
107,1,2,1,88,1,76.6599,319.1987,286.8586,3,2,1,1,0,0,1,76.6599,57.7037,1.5347,-18.9563,20,
107,1,2,1,89,1,135.784,76.6302,46.5703,1,2,3,1,1,0,0,135.784,80.2615,1.8541,-55.5225,0,
107,1,2,1,90,0,286.0726,228.3995,167.7865,0,0,0,3,0,0,0,167.7865,177.0965,1.8262,9.3101,30,
107,1,2,1,91,1,287.0116,195.9092,139.2813,2,3,1,3,0,1,0,139.2813,148.6974,2.2566,9.4161,30,
107,1,2,1,92,1,225.9992,318.0367,107.7152,3,2,1,1,0,0,1,225.9992,217.5176,2.0068,-8.4816,30,
107,1,2,1,93,1,48.791,169.4352,15.344,1,3,2,1,1,0,0,48.791,209.983,2.0488,161.192,0,
107,1,2,1,94,0,16.9081,317.8384,169.4393,0,0,0,1,0,0,0,16.9081,46.8833,2.0692,29.9753,10,
107,1,2,1,95,1,139.6308,166.4925,256.6904,2,3,1,3,0,1,0,256.6904,94.0916,2.7428,-162.5988,0,
107,1,2,1,96,1,346.3991,77.235,47.9379,1,2,3,1,1,0,0,346.3991,352.4208,2.2704,6.0217,30,
107,1,2,1,97,1,349.442,316.1658,289.308,2,3,1,2,1,0,0,316.1658,317.2904,2.4372,1.1246,40,
107,1,2,1,98,0,287.6372,108.625,348.0371,0,0,0,2,0,0,0,108.625,71.68,1.7357,-36.945,0,
107,1,2,1,99,0,349.0746,135.7025,259.3993,0,0,0,1,0,0,0,349.0746,350.0688,2.2494,0.99417,40,
107,1,2,1,100,0,15.4219,229.8604,285.1573,0,0,0,2,0,0,0,229.8604,236.4583,2.3472,6.5978,30,
107,1,2,1,101,0,318.2673,77.4483,349.8643,0,0,0,2,0,0,0,77.4483,49.5537,1.2013,-27.8946,10,
107,1,2,1,102,0,287.6205,225.601,105.889,0,0,0,3,0,0,0,105.889,301.0059,1.0624,-164.883,0,
107,1,2,1,103,1,77.9122,257.105,345.4603,1,3,2,1,1,0,0,77.9122,331.1093,1.6042,-106.8029,0,
107,1,2,1,104,1,15.8762,165.966,258.0821,1,3,2,1,1,0,0,15.8762,345.6141,1.3125,-30.2621,0,
107,1,2,1,105,1,288.861,317.3768,18.4045,3,1,2,3,1,0,0,18.4045,18.1855,2.1318,-0.21898,40,
107,1,2,1,106,0,139.1315,79.956,197.6197,0,0,0,3,0,0,0,197.6197,205.9789,1.6249,8.3592,30,
107,1,2,1,107,1,317.3578,347.715,225.2985,2,3,1,2,1,0,0,347.715,6.195,1.3819,18.4801,20,
107,1,2,1,108,0,79.1667,256.0186,227.7221,0,0,0,2,0,0,0,256.0186,230.9988,3.1316,-25.0198,10,
107,1,2,1,109,1,165.6614,49.3524,348.0148,2,3,1,1,0,0,1,165.6614,148.2234,1.7988,-17.4381,20,
107,1,2,1,110,1,76.8968,319.3234,17.0998,1,2,3,1,1,0,0,76.8968,55.7198,1.7009,-21.1771,10,
107,1,2,1,111,0,349.1405,287.5372,16.8308,0,0,0,3,0,0,0,16.8308,28.5397,1.8471,11.7089,30,
107,1,2,1,112,0,167.8456,109.3752,136.7429,0,0,0,2,0,0,0,109.3752,125.5787,1.8193,16.2036,20,
107,1,2,1,113,0,17.3376,75.7067,45.3407,0,0,0,1,0,0,0,17.3376,170.9845,1.2916,153.6469,0,
107,1,2,1,114,1,346.2021,48.4245,319.1963,3,2,1,3,1,0,0,319.1963,322.6898,1.1666,3.4935,30,
107,1,2,1,115,0,316.9479,48.8765,285.8968,0,0,0,3,0,0,0,285.8968,337.0385,1.9165,51.1416,0,
107,1,2,1,116,0,169.6136,317.8213,17.1573,0,0,0,3,0,0,0,17.1573,6.6775,1.5277,-10.4798,30,
107,1,2,1,117,1,79.9629,257.2792,17.1302,1,3,2,3,0,1,0,17.1302,26.5725,1.7633,9.4423,30,
107,1,2,1,118,1,348.4165,318.0428,46.0983,2,1,3,2,1,0,0,318.0428,327.0252,1.5552,8.9824,30,
107,1,2,1,119,1,169.7606,319.8793,345.1546,1,2,3,1,1,0,0,169.7606,155.9448,1.9165,-13.8159,20,
107,1,2,1,120,1,196.2163,77.8571,319.9086,2,1,3,1,0,1,0,196.2163,163.7925,1.4791,-32.4238,0,
107,1,3,2,121,0,315.19,49.7712,258.7119,0,0,0,3,0,0,0,258.7119,240.9943,1.5136,-17.7176,20,
107,1,3,2,122,1,256.3059,75.474,107.2548,2,3,1,2,1,0,0,75.474,69.8431,1.0972,-5.6309,30,
107,1,3,2,123,1,46.3872,285.0305,346.8736,1,3,2,1,1,0,0,46.3872,59.9426,1.4301,13.5554,20,
107,1,3,2,124,0,105.9184,319.3083,75.1632,0,0,0,2,0,0,0,319.3083,311.4,1.5137,-7.9083,30,
107,1,3,2,125,0,106.5588,195.2766,18.769,0,0,0,3,0,0,0,18.769,27.3536,1.6316,8.5847,30,
107,1,3,2,126,1,139.8817,17.9662,316.522,1,3,2,2,0,0,1,17.9662,13.7083,1.6109,-4.2579,30,
107,1,3,2,127,1,108.4447,349.7301,229.3677,1,3,2,1,1,0,0,108.4447,122.3217,1.4027,13.877,20,
107,1,3,2,128,1,319.9646,15.8124,75.5678,3,1,2,3,1,0,0,75.5678,48.5482,2.1248,-27.0196,10,
107,1,3,2,129,1,317.5047,196.66,135.8694,2,3,1,2,1,0,0,196.66,225.3477,1.5901,28.6877,10,
107,1,3,2,130,1,287.6892,169.3546,108.6142,3,2,1,3,1,0,0,108.6142,82.3037,1.5624,-26.3105,10,
107,1,3,2,131,1,347.3686,289.756,46.2448,2,1,3,2,1,0,0,289.756,298.9769,1.2707,9.2209,30,
107,1,3,2,132,0,167.2609,19.246,46.9522,0,0,0,2,0,0,0,19.246,344.626,1.5762,-34.62,0,
107,1,3,2,133,1,197.6056,138.8715,165.6013,2,3,1,2,1,0,0,138.8715,132.9988,1.4721,-5.8728,30,
107,1,3,2,134,1,167.5071,256.385,287.6698,3,2,1,1,0,0,1,167.5071,158.0505,1.1806,-9.4566,30,
107,1,3,2,135,1,75.2679,196.8753,288.875,2,3,1,2,1,0,0,196.8753,200.7268,1.7151,3.8516,30,
107,1,3,2,136,1,197.5604,348.6066,259.6442,3,1,2,3,1,0,0,259.6442,253.5332,1.8609,-6.111,30,
107,1,3,2,137,0,168.4379,109.9343,348.8497,0,0,0,3,0,0,0,348.8497,341.4493,2.1526,-7.4003,30,
107,1,3,2,138,0,198.6208,258.0684,348.9148,0,0,0,2,0,0,0,258.0684,250.6432,1.4999,-7.4252,30,
107,1,3,2,139,1,345.3642,288.7561,229.1559,1,2,3,1,1,0,0,345.3642,331.3915,1.9234,-13.9727,20,
107,1,3,2,140,1,229.1626,289.9769,348.2488,3,2,1,1,0,0,1,229.1626,235.0725,1.0346,5.91,30,
107,1,3,2,141,1,196.0322,256.693,137.8706,1,3,2,1,1,0,0,196.0322,213.8949,1.4929,17.8628,20,
107,1,3,2,142,1,137.2949,199.3049,318.3042,3,2,1,3,1,0,0,318.3042,321.2519,0.93744,2.9477,40,
107,1,3,2,143,1,319.5075,166.5917,77.9854,3,2,1,3,1,0,0,77.9854,60.9778,1.8817,-17.0076,20,
107,1,3,2,144,1,198.7463,49.2093,255.8344,2,3,1,2,1,0,0,49.2093,52.9247,0.95093,3.7154,30,
107,1,3,2,145,0,47.6562,169.7795,195.3334,0,0,0,3,0,0,0,195.3334,211.5397,1.1458,16.2063,20,
107,1,3,2,146,1,285.7627,255.7778,345.4478,3,1,2,3,1,0,0,345.4478,343.9655,1.2499,-1.4823,40,
107,1,3,2,147,0,346.1715,287.3235,18.0969,0,0,0,1,0,0,0,346.1715,332.7569,1.6941,-13.4146,20,
107,1,3,2,148,0,286.6012,47.4647,76.1083,0,0,0,1,0,0,0,286.6012,337.7519,1.4027,51.1507,0,
107,1,3,2,149,1,169.9519,135.1685,257.1213,3,2,1,3,1,0,0,257.1213,248.1448,1.6943,-8.9765,30,
107,1,3,2,150,1,135.5186,76.8876,286.3143,1,3,2,1,1,0,0,135.5186,135.6384,1.5762,0.11979,40,
107,1,3,2,151,1,136.9241,15.8132,228.9838,3,2,1,3,1,0,0,228.9838,234.136,1.4652,5.1523,30,
107,1,3,2,152,1,256.3422,16.2905,47.405,2,1,3,1,0,1,0,256.3422,NaN,100000,999,0,
107,1,3,2,153,1,46.019,79.9667,135.4681,3,2,1,3,1,0,0,135.4681,146.2564,1.7498,10.7883,30,
107,1,3,2,154,0,139.2935,49.6024,78.7542,0,0,0,3,0,0,0,78.7542,65.3457,2.104,-13.4085,20,
107,1,3,2,155,0,287.1087,317.0566,79.7957,0,0,0,1,0,0,0,287.1087,286.186,2.4442,-0.9227,40,
107,1,3,2,156,1,108.3266,79.8213,348.3558,3,1,2,2,0,0,1,79.8213,75.8473,1.2499,-3.974,30,
107,1,3,2,157,1,75.3655,287.9028,346.4351,3,1,2,3,1,0,0,346.4351,354.1588,1.2152,7.7237,30,
107,1,3,2,158,1,198.7184,106.9255,16.2575,3,2,1,3,1,0,0,16.2575,8.1971,1.0694,-8.0604,30,
107,1,3,2,159,1,19.4394,316.2826,169.834,1,2,3,3,0,0,1,169.834,157.4275,1.2843,-12.4065,20,
107,1,3,2,160,1,198.7854,49.4316,347.3611,1,2,3,2,0,1,0,49.4316,NaN,100000,999,0,
107,1,3,2,161,0,256.8834,287.5216,198.8175,0,0,0,3,0,0,0,198.8175,196.9622,1.3679,-1.8553,40,
107,1,3,2,162,0,15.4179,197.5633,289.1643,0,0,0,2,0,0,0,197.5633,204.8479,2.0138,7.2846,30,
107,1,3,2,163,0,225.9814,285.6068,317.7185,0,0,0,3,0,0,0,317.7185,312.7851,0.9513,-4.9333,30,
107,1,3,2,164,1,226.822,15.8574,348.9768,2,3,1,2,1,0,0,15.8574,20.0786,0.97208,4.2212,30,
107,1,3,2,165,0,108.4765,49.8046,227.7316,0,0,0,1,0,0,0,108.4765,127.3677,1.2635,18.8912,20,
107,1,3,2,166,1,139.2915,349.5471,169.8083,2,3,1,2,1,0,0,349.5471,347.4631,1.3679,-2.084,40,
107,1,3,2,167,1,317.665,166.6339,78.011,1,2,3,1,1,0,0,317.665,336.401,1.6595,18.736,20,
107,1,3,2,168,0,45.8568,286.6499,19.8324,0,0,0,1,0,0,0,45.8568,329.4428,1.6735,-76.414,0,
107,1,3,2,169,0,106.7704,226.3312,346.4575,0,0,0,1,0,0,0,106.7704,67.1731,1.743,-39.5973,0,
107,1,3,2,170,1,49.4181,287.1224,18.0363,2,3,1,2,1,0,0,287.1224,300.4591,1.5276,13.3367,20,
107,1,3,2,171,0,17.7364,197.7674,108.1529,0,0,0,2,0,0,0,197.7674,262.1206,1.5901,64.3531,0,
107,1,3,2,172,0,345.4081,166.3724,229.3376,0,0,0,2,0,0,0,166.3724,122.8639,1.3125,-43.5085,0,
107,1,3,2,173,0,198.8857,346.9197,288.5578,0,0,0,1,0,0,0,198.8857,207.4668,1.5694,8.5811,30,
107,1,3,2,174,0,285.827,225.908,348.4572,0,0,0,1,0,0,0,285.827,311.2202,1.6943,25.3932,10,
107,1,3,2,175,0,165.0106,319.7555,18.8315,0,0,0,3,0,0,0,18.8315,28.2072,2.4373,9.3757,30,
107,1,3,2,176,0,45.903,107.8665,75.8178,0,0,0,2,0,0,0,107.8665,320.896,3.028,-146.9705,0,
107,1,3,2,177,0,46.1465,285.9111,225.8318,0,0,0,3,0,0,0,225.8318,40.6904,1.8121,174.8587,0,
107,1,3,2,178,0,108.3036,169.7062,19.8785,0,0,0,2,0,0,0,169.7062,155.7093,2.1803,-13.9969,20,
107,1,3,2,179,1,259.2268,109.3944,138.7309,3,2,1,2,0,1,0,109.3944,NaN,100000,999,0,
107,1,3,2,180,1,17.2394,78.5482,169.7217,1,2,3,1,1,0,0,17.2394,57.2865,1.2985,40.0471,0,
107,1,4,2,181,1,228.2734,195.1307,18.9289,2,3,1,2,1,0,0,195.1307,201.1837,2.2011,6.053,30,
107,1,4,2,182,0,109.9695,258.0224,229.7245,0,0,0,3,0,0,0,229.7245,208.1299,1.3606,-21.5946,10,
107,1,4,2,183,1,285.552,166.0832,199.0551,1,2,3,1,1,0,0,285.552,287.0803,2.2563,1.5283,40,
107,1,4,2,184,0,108.221,255.3397,226.0396,0,0,0,3,0,0,0,226.0396,218.3987,1.3055,-7.6409,30,
107,1,4,2,185,1,319.6343,15.0415,79.1231,2,3,1,2,1,0,0,15.0415,23.7784,1.4443,8.7369,30,
107,1,4,2,186,1,289.6135,166.6016,349.2877,2,3,1,2,1,0,0,166.6016,160.0774,1.6735,-6.5242,30,
107,1,4,2,187,1,135.0642,315.9331,77.4262,1,2,3,1,1,0,0,135.0642,147.1105,1.3818,12.0463,20,
107,1,4,2,188,1,137.8393,227.1325,45.3812,1,2,3,1,1,0,0,137.8393,141.0022,1.4788,3.1629,30,
107,1,4,2,189,0,169.7982,15.4454,288.9887,0,0,0,1,0,0,0,169.7982,131.3942,1.7289,-38.404,0,
107,1,4,2,190,0,137.5494,76.9126,259.5274,0,0,0,2,0,0,0,76.9126,64.1205,1.1596,-12.792,20,
107,1,4,2,191,1,345.9222,75.2283,289.4252,1,3,2,1,1,0,0,345.9222,166.3283,0.87491,-179.5939,0,
107,1,4,2,192,0,48.1135,105.3177,286.8675,0,0,0,2,0,0,0,105.3177,111.9729,1.4235,6.6552,30,
107,1,4,2,193,1,76.7084,347.7434,17.3027,1,2,3,2,0,1,0,347.7434,NaN,100000,999,0,
107,1,4,2,194,1,257.1951,105.7453,195.1414,1,3,2,2,0,0,1,105.7453,318.6158,1.5485,-147.1295,0,
107,1,4,2,195,1,317.404,105.3326,79.4889,1,3,2,1,1,0,0,317.404,308.1322,2.056,-9.2719,30,
107,1,4,2,196,0,76.7007,169.5946,107.2813,0,0,0,1,0,0,0,76.7007,328.5822,2.0272,-108.1185,0,
107,1,4,2,197,1,347.9954,168.0078,108.2471,3,1,2,2,0,0,1,168.0078,155.1382,2.0136,-12.8696,20,
107,1,4,2,198,0,136.8788,169.3173,286.4599,0,0,0,1,0,0,0,136.8788,135.1109,1.7151,-1.7679,40,
107,1,4,2,199,0,196.4215,17.1766,229.5188,0,0,0,3,0,0,0,229.5188,202.8984,1.4999,-26.6204,10,
107,1,4,2,200,1,287.6707,136.834,196.8197,1,3,2,1,1,0,0,287.6707,142.0348,2.6109,-145.6359,0,
107,1,4,2,201,1,229.9196,49.8989,16.2508,1,2,3,1,1,0,0,229.9196,218.2,1.555,-11.7196,30,
107,1,4,2,202,1,195.0178,169.0762,228.1921,3,2,1,3,1,0,0,228.1921,219.5595,2.1175,-8.6326,30,
107,1,4,2,203,0,257.3316,289.7577,49.825,0,0,0,3,0,0,0,49.825,43.298,1.3818,-6.5271,30,
107,1,4,2,204,1,259.0554,288.5523,139.8512,2,1,3,3,0,0,1,139.8512,138.8083,1.7985,-1.0429,40,
107,1,4,2,205,1,286.2257,165.3206,76.3157,1,3,2,1,1,0,0,286.2257,290.9639,3.6799,4.7382,30,
107,1,4,2,206,1,315.0382,228.0546,17.0404,1,2,3,1,1,0,0,315.0382,307.9244,2.9719,-7.1138,30,
107,1,4,2,207,0,108.5521,168.4433,16.6047,0,0,0,2,0,0,0,168.4433,126.0448,2.0138,-42.3985,0,
107,1,4,2,208,1,75.8955,138.1723,319.8148,3,1,2,3,1,0,0,319.8148,135.1352,2.7844,175.3205,0,
107,1,4,2,209,1,169.5658,108.4126,319.7337,1,2,3,1,1,0,0,169.5658,156.3992,1.2985,-13.1665,20,
107,1,4,2,210,0,315.4142,19.752,75.0819,0,0,0,2,0,0,0,19.752,28.6997,1.0831,8.9477,30,
107,1,4,2,211,1,317.3943,106.5406,48.7222,3,2,1,1,0,0,1,317.3943,309.8081,2.0484,-7.5861,30,
107,1,4,2,212,1,286.3409,257.7512,45.9026,3,2,1,3,1,0,0,45.9026,39.0502,1.4444,-6.8524,30,
107,1,4,2,213,0,77.0324,49.759,139.5599,0,0,0,1,0,0,0,77.0324,51.404,1.2637,-25.6284,10,
107,1,4,2,214,0,318.0144,166.8875,138.3247,0,0,0,3,0,0,0,138.3247,112.1616,1.2777,-26.1631,10,
107,1,4,2,215,0,198.4041,109.616,45.7642,0,0,0,1,0,0,0,198.4041,200.115,1.4167,1.7109,40,
107,1,4,2,216,0,45.5504,196.3961,258.8382,0,0,0,3,0,0,0,258.8382,49.4257,1.3818,150.5875,0,
107,1,4,2,217,0,226.2324,48.3037,346.647,0,0,0,2,0,0,0,48.3037,36.3474,0.83327,-11.9562,30,
107,1,4,2,218,1,49.0048,137.7749,107.0944,2,1,3,1,0,1,0,49.0048,NaN,100000,999,0,
107,1,4,2,219,1,167.4934,18.693,255.0638,2,3,1,3,0,1,0,255.0638,NaN,100000,999,0,
107,1,4,2,220,0,288.6709,195.521,228.9629,0,0,0,1,0,0,0,288.6709,142.6806,1.6663,-145.9903,0,
107,1,4,2,221,1,165.2439,196.5692,108.2082,3,1,2,3,1,0,0,108.2082,67.385,1.5697,-40.8231,0,
107,1,4,2,222,1,48.3979,197.8389,288.2589,3,2,1,2,0,1,0,197.8389,NaN,100000,999,0,
107,1,4,2,223,1,109.8933,45.5568,136.9804,1,2,3,1,1,0,0,109.8933,64.148,2.0419,-45.7454,0,
107,1,4,2,224,0,78.9946,289.6512,345.0236,0,0,0,2,0,0,0,289.6512,292.5546,1.7225,2.9034,40,
107,1,4,2,225,0,165.1751,197.0274,76.2483,0,0,0,2,0,0,0,197.0274,201.5307,3.0344,4.5033,30,
107,1,4,2,226,1,138.6715,347.4974,169.7165,1,3,2,1,1,0,0,138.6715,149.4056,1.2569,10.7341,30,
107,1,4,2,227,1,167.6721,77.1758,345.7885,1,2,3,2,0,1,0,77.1758,NaN,100000,999,0,
107,1,4,2,228,1,79.4084,198.6705,227.0322,3,2,1,1,0,0,1,79.4084,150.5296,0.83992,71.1212,0,
107,1,4,2,229,1,256.2999,78.9343,137.5579,1,3,2,1,1,0,0,256.2999,224.8822,1.2985,-31.4177,0,
107,1,4,2,230,0,258.2465,78.8143,167.8784,0,0,0,2,0,0,0,78.8143,65.0266,1.1457,-13.7876,20,
107,1,4,2,231,1,315.1631,197.1487,45.1863,3,1,2,1,0,1,0,315.1631,NaN,100000,999,0,
107,1,4,2,232,1,166.0708,105.0193,259.4029,3,2,1,1,0,0,1,166.0708,169.8701,1.3818,3.7993,30,
107,1,4,2,233,1,285.4293,17.6559,49.4428,2,1,3,2,1,0,0,17.6559,32.5655,1.1878,14.9096,20,
107,1,4,2,234,0,137.0614,166.811,48.907,0,0,0,2,0,0,0,166.811,162.5023,1.5971,-4.3087,30,
107,1,4,2,235,0,258.397,19.884,195.6273,0,0,0,1,0,0,0,258.397,249.5371,1.597,-8.86,30,
107,1,4,2,236,0,167.6627,229.6285,109.4954,0,0,0,2,0,0,0,229.6285,229.9705,1.9509,0.34196,40,
107,1,4,2,237,1,289.3028,79.6955,258.401,3,1,2,3,1,0,0,258.401,269.2176,1.2221,10.8166,30,
107,1,4,2,238,0,167.6572,228.169,345.0705,0,0,0,1,0,0,0,167.6572,154.8599,1.4583,-12.7974,20,
107,1,4,2,239,0,78.7617,259.4745,169.2092,0,0,0,1,0,0,0,78.7617,76.6033,1.3402,-2.1584,40,
107,1,4,2,240,0,138.6643,105.5838,18.7302,0,0,0,2,0,0,0,105.5838,112.7491,1.4721,7.1653,30,
107,1,5,2,241,0,167.0559,316.1824,255.9753,0,0,0,2,0,0,0,316.1824,316.5228,1.6106,0.34033,40,
107,1,5,2,242,1,225.5146,49.9844,196.7948,2,3,1,2,1,0,0,49.9844,46.4693,0.90967,-3.5151,30,
107,1,5,2,243,1,77.9323,198.8902,258.6385,3,2,1,2,0,1,0,198.8902,NaN,100000,999,0,
107,1,5,2,244,1,228.7567,317.6118,347.4522,2,1,3,2,1,0,0,317.6118,325.5108,1.0416,7.899,30,
107,1,5,2,245,1,16.2011,225.3515,286.5002,1,2,3,1,1,0,0,16.2011,42.0402,1.7151,25.8391,10,
107,1,5,2,246,1,166.4226,49.1528,229.0918,3,1,2,3,1,0,0,229.0918,47.81,1.8543,178.7182,0,
107,1,5,2,247,0,48.2004,108.9378,136.35,0,0,0,2,0,0,0,108.9378,112.3281,1.0277,3.3903,30,
107,1,5,2,248,1,135.4472,258.6564,229.5193,1,2,3,1,1,0,0,135.4472,136.6719,0.81936,1.2247,40,
107,1,5,2,249,0,139.9175,46.2417,348.0318,0,0,0,1,0,0,0,139.9175,136.8739,1.4162,-3.0436,30,
107,1,5,2,250,0,287.9163,196.3027,345.4241,0,0,0,2,0,0,0,196.3027,199.6065,2.8053,3.3038,30,
107,1,5,2,251,1,199.6498,106.4098,345.8444,2,3,1,2,1,0,0,106.4098,97.4096,1.0555,-9.0002,30,
107,1,5,2,252,1,169.1344,316.5048,346.9194,2,1,3,2,1,0,0,316.5048,314.397,1.361,-2.1078,40,
107,1,5,2,253,1,195.6162,138.6794,225.7831,3,2,1,3,1,0,0,225.7831,235.2932,1.5971,9.5101,30,
107,1,5,2,254,1,105.6737,316.6189,199.7527,2,3,1,2,1,0,0,316.6189,321.4357,1.0971,4.8168,30,
107,1,5,2,255,1,319.0859,286.8877,49.863,2,1,3,2,1,0,0,286.8877,311.0699,1.1736,24.1822,10,
107,1,5,2,256,0,169.9745,197.4529,47.5173,0,0,0,3,0,0,0,47.5173,41.0384,1.7429,-6.4789,30,
107,1,5,2,257,1,108.6293,256.6972,346.3634,2,3,1,1,0,0,1,108.6293,108.4327,1.4791,-0.19662,40,
107,1,5,2,258,1,315.1454,285.681,18.4728,1,3,2,1,1,0,0,315.1454,127.7872,3.5066,172.6417,0,
107,1,5,2,259,0,345.3735,195.9123,165.1584,0,0,0,2,0,0,0,195.9123,190.638,2.2151,-5.2742,30,
107,1,5,2,260,1,48.6624,345.8147,229.6054,2,1,3,2,1,0,0,345.8147,331.6771,1.7984,-14.1376,20,
107,1,5,2,261,0,75.0066,49.9063,17.851,0,0,0,3,0,0,0,17.851,19.554,1.7843,1.7031,40,
107,1,5,2,262,1,108.7804,256.4412,78.0309,2,3,1,3,0,1,0,78.0309,NaN,100000,999,0,
107,1,5,2,263,0,136.1479,165.0346,318.8332,0,0,0,1,0,0,0,136.1479,50.0262,2.3609,-86.1217,0,
107,1,5,2,264,1,197.5948,19.1099,348.1851,3,1,2,1,0,1,0,197.5948,NaN,100000,999,0,
107,1,5,2,265,1,107.0495,196.8559,226.1343,3,2,1,1,0,0,1,107.0495,126.7228,1.1527,19.6733,20,
107,1,5,2,266,0,168.9651,139.0778,48.7606,0,0,0,1,0,0,0,168.9651,150.4086,1.1668,-18.5565,20,
107,1,5,2,267,1,317.7818,139.8454,168.4456,1,3,2,1,1,0,0,317.7818,315.9057,1.3397,-1.8762,40,
107,1,5,2,268,0,345.0331,197.9865,288.2959,0,0,0,2,0,0,0,197.9865,215.9668,1.5415,17.9803,20,
107,1,5,2,269,0,168.9406,229.348,288.9377,0,0,0,3,0,0,0,288.9377,287.8682,1.118,-1.0695,40,
107,1,5,2,270,1,165.9414,106.621,288.5802,2,1,3,2,1,0,0,106.621,84.1453,1.118,-22.4757,10,
107,1,5,2,271,1,168.5983,256.5138,47.2951,3,2,1,3,1,0,0,47.2951,38.6128,1.8054,-8.6823,30,
107,1,5,2,272,1,17.1214,319.5277,287.0866,3,1,2,2,0,0,1,319.5277,313.7877,1.4444,-5.74,30,
107,1,5,2,273,0,285.9294,16.4572,317.3083,0,0,0,2,0,0,0,16.4572,340.9849,1.3193,-35.4723,0,
107,1,5,2,274,1,135.8698,195.5877,105.8702,2,3,1,1,0,0,1,135.8698,48.3031,2.0415,-87.5667,0,
107,1,5,2,275,1,107.3868,259.4494,195.3254,1,2,3,3,0,0,1,195.3254,167.486,1.6527,-27.8394,10,
107,1,5,2,276,1,136.9238,347.8132,168.1692,2,3,1,3,0,1,0,168.1692,NaN,100000,999,0,
107,1,5,2,277,1,227.7422,136.0392,108.9229,1,2,3,1,1,0,0,227.7422,221.2449,1.0347,-6.4973,30,
107,1,5,2,278,1,138.9978,348.9808,289.7704,3,2,1,3,1,0,0,289.7704,308.7684,2.0345,18.998,20,
107,1,5,2,279,0,136.8617,167.0285,17.1941,0,0,0,2,0,0,0,167.0285,325.6973,1.2082,158.6688,0,
107,1,5,2,280,0,318.5183,259.5948,138.3004,0,0,0,3,0,0,0,138.3004,66.2314,1.3471,-72.0689,0,
107,1,5,2,281,1,225.1476,257.3617,288.3922,3,1,2,3,1,0,0,288.3922,266.7033,2.0415,-21.6889,10,
107,1,5,2,282,0,19.5042,105.6908,48.9704,0,0,0,2,0,0,0,105.6908,124.7985,1.6461,19.1077,20,
107,1,5,2,283,1,45.9366,77.7282,136.2756,1,3,2,1,1,0,0,45.9366,55.0205,1.2985,9.0839,30,
107,1,5,2,284,1,169.4306,45.747,257.1734,1,3,2,1,1,0,0,169.4306,145.5741,1.6319,-23.8565,10,
107,1,5,2,285,0,287.5569,16.0754,106.7305,0,0,0,2,0,0,0,16.0754,27.2544,1.0693,11.1789,30,
107,1,5,2,286,1,287.3987,75.9933,316.1951,2,3,1,3,0,1,0,316.1951,NaN,100000,999,0,
107,1,5,2,287,1,259.6331,285.4745,76.8771,2,3,1,1,0,0,1,259.6331,241.8051,1.9373,-17.828,20,
107,1,5,2,288,0,197.3872,316.5277,47.5817,0,0,0,3,0,0,0,47.5817,39.7961,1.6041,-7.7855,30,
107,1,5,2,289,0,319.7979,108.851,79.3751,0,0,0,3,0,0,0,79.3751,75.9567,1.2013,-3.4184,30,
107,1,5,2,290,1,16.3184,229.58,348.0752,3,2,1,3,1,0,0,348.0752,2.8155,1.0624,14.7404,20,
107,1,5,2,291,1,347.7596,17.0191,198.7506,2,1,3,1,0,1,0,347.7596,NaN,100000,999,0,
107,1,5,2,292,1,229.2868,75.9901,315.778,2,1,3,2,1,0,0,75.9901,47.0316,1.0346,-28.9585,10,
107,1,5,2,293,0,76.7418,17.4316,258.3976,0,0,0,3,0,0,0,258.3976,232.3293,1.6874,-26.0683,10,
107,1,5,2,294,0,139.9652,345.4822,196.5657,0,0,0,3,0,0,0,196.5657,187.5475,1.3958,-9.0183,30,
107,1,5,2,295,1,258.5304,135.1951,198.0815,2,1,3,1,0,1,0,258.5304,NaN,100000,999,0,
107,1,5,2,296,0,79.9196,45.2887,106.9827,0,0,0,3,0,0,0,106.9827,120.2923,1.5068,13.3095,20,
107,1,5,2,297,1,139.4131,317.1872,79.1748,2,1,3,3,0,0,1,79.1748,77.2294,2.2498,-1.9454,40,
107,1,5,2,298,0,169.0204,227.8133,108.7544,0,0,0,1,0,0,0,169.0204,161.9798,1.4585,-7.0406,30,
107,1,5,2,299,1,15.6194,315.9312,168.2325,1,2,3,1,1,0,0,15.6194,33.8617,1.9305,18.2423,20,
107,1,5,2,300,1,108.8763,47.9592,16.8809,1,2,3,3,0,0,1,16.8809,25.5657,1.4165,8.6848,30,
107,1,6,2,301,0,46.9234,135.2004,227.9147,0,0,0,1,0,0,0,46.9234,64.3628,1.4512,17.4394,20,
107,1,6,2,302,0,195.7893,347.5433,258.0165,0,0,0,3,0,0,0,258.0165,253.8049,1.2151,-4.2116,30,
107,1,6,2,303,0,16.8971,197.9642,135.3425,0,0,0,2,0,0,0,197.9642,204.6568,2.298,6.6926,30,
107,1,6,2,304,0,347.1749,287.7893,258.1939,0,0,0,1,0,0,0,347.1749,339.6395,1.8679,-7.5354,30,
107,1,6,2,305,1,16.4771,196.8306,76.7452,2,3,1,2,1,0,0,196.8306,224.8676,1.2151,28.037,10,
107,1,6,2,306,1,317.1352,167.8886,349.4976,3,1,2,2,0,0,1,167.8886,154.2585,3.2497,-13.6301,20,
107,1,6,2,307,0,349.4673,318.2654,15.2014,0,0,0,1,0,0,0,349.4673,341.2423,2.3333,-8.225,30,
107,1,6,2,308,1,348.6462,168.243,137.3733,2,1,3,2,1,0,0,168.243,160.3774,1.6317,-7.8656,30,
107,1,6,2,309,1,136.4477,45.0925,348.5075,2,1,3,2,1,0,0,45.0925,69.9409,0.94437,24.8484,10,
107,1,6,2,310,1,315.7111,256.8779,168.9678,2,1,3,2,1,0,0,256.8779,62.5523,0.81241,165.6744,0,
107,1,6,2,311,1,169.758,196.7334,286.4866,1,3,2,1,1,0,0,169.758,166.6552,0.80553,-3.1028,30,
107,1,6,2,312,1,259.5246,346.4085,138.0694,1,2,3,2,0,1,0,346.4085,NaN,100000,999,0,
107,1,6,2,313,0,225.0449,48.5914,257.2471,0,0,0,1,0,0,0,225.0449,204.1073,1.2989,-20.9376,20,
107,1,6,2,314,1,109.9422,346.2555,196.5774,1,3,2,1,1,0,0,109.9422,131.1306,1.4447,21.1884,10,
107,1,6,2,315,0,46.3042,227.4654,109.2792,0,0,0,3,0,0,0,109.2792,133.5317,1.8123,24.2525,10,
107,1,6,2,316,0,257.3016,227.5784,76.36,0,0,0,3,0,0,0,76.36,58.3783,1.8196,-17.9817,20,
107,1,6,2,317,1,257.7944,16.1293,135.5226,1,2,3,2,0,1,0,16.1293,NaN,100000,999,0,
107,1,6,2,318,1,19.299,47.9853,288.2738,2,1,3,1,0,1,0,19.299,NaN,100000,999,0,
107,1,6,2,319,1,195.14,255.3342,79.6353,3,1,2,3,1,0,0,79.6353,76.1217,1.5555,-3.5136,30,
107,1,6,2,320,1,15.1824,255.3184,106.6144,1,3,2,2,0,0,1,255.3184,59.9502,2.0346,164.6318,0,
107,1,6,2,321,0,107.9897,225.1151,19.4971,0,0,0,1,0,0,0,107.9897,127.7146,1.5765,19.7249,20,
107,1,6,2,322,0,197.2525,47.8892,285.3742,0,0,0,2,0,0,0,47.8892,51.8111,1.2013,3.9219,30,
107,1,6,2,323,1,17.2564,316.2498,139.7772,2,3,1,2,1,0,0,316.2498,316.6211,1.604,0.37125,40,
107,1,6,2,324,0,17.2228,288.1376,347.6732,0,0,0,3,0,0,0,347.6732,350.13,1.5623,2.4568,40,
107,1,6,2,325,1,317.5363,165.5686,257.4522,3,1,2,3,1,0,0,257.4522,244.2808,1.4721,-13.1714,20,
107,1,6,2,326,1,47.5541,317.8229,199.9686,2,1,3,2,1,0,0,317.8229,302.5981,1.6179,-15.2248,20,
107,1,6,2,327,0,106.6799,75.7242,346.2244,0,0,0,2,0,0,0,75.7242,63.2509,1.1942,-12.4733,20,
107,1,6,2,328,1,169.2888,79.31,346.5665,1,3,2,3,0,1,0,346.5665,NaN,100000,999,0,
107,1,6,2,329,1,319.3634,106.4291,198.2842,3,1,2,3,1,0,0,198.2842,176.7351,1.7915,-21.5491,10,
107,1,6,2,330,1,349.5954,197.0535,78.6618,3,1,2,1,0,1,0,349.5954,NaN,100000,999,0,
107,1,6,2,331,1,15.0076,347.81,287.7324,3,1,2,3,1,0,0,287.7324,266.8307,1.7082,-20.9017,20,
107,1,6,2,332,1,285.9061,227.1312,255.4908,1,3,2,1,1,0,0,285.9061,299.7028,1.5069,13.7967,20,
107,1,6,2,333,1,345.6878,197.1204,228.8228,3,1,2,3,1,0,0,228.8228,221.5477,1.4301,-7.2751,30,
107,1,6,2,334,1,165.8893,259.9342,75.085,2,1,3,1,0,1,0,165.8893,NaN,100000,999,0,
107,1,6,2,335,1,18.1545,289.4599,318.367,1,2,3,1,1,0,0,18.1545,31.2534,1.2776,13.0989,20,
107,1,6,2,336,1,227.6908,319.5507,166.7535,1,3,2,3,0,1,0,166.7535,NaN,100000,999,0,
107,1,6,2,337,0,256.578,109.9701,229.9195,0,0,0,1,0,0,0,256.578,56.7324,1.2499,160.1544,0,
107,1,6,2,338,1,258.626,319.1718,285.0945,3,2,1,1,0,0,1,258.626,226.1474,1.2985,-32.4786,0,
107,1,6,2,339,0,289.6574,136.8901,18.0884,0,0,0,1,0,0,0,289.6574,247.5272,1.7984,-42.1301,0,
107,1,6,2,340,1,107.9087,195.499,225.833,3,1,2,3,1,0,0,225.833,226.5312,1.9304,0.69819,40,
107,1,6,2,341,0,19.4256,46.0482,167.4018,0,0,0,2,0,0,0,46.0482,43.4989,1.5971,-2.5493,40,
107,1,6,2,342,1,78.6958,106.2681,18.5963,1,2,3,2,0,1,0,106.2681,NaN,100000,999,0,
107,1,6,2,343,0,258.1371,347.3141,105.6472,0,0,0,3,0,0,0,105.6472,98.6538,1.4305,-6.9934,30,
107,1,6,2,344,0,229.993,137.5676,346.9392,0,0,0,1,0,0,0,229.993,220.1245,1.6875,-9.8685,30,
107,1,6,2,345,1,199.8122,16.5687,48.9854,2,1,3,2,1,0,0,16.5687,24.1348,1.0277,7.5661,30,
107,1,6,2,346,1,49.5963,169.9447,79.663,2,1,3,3,0,0,1,79.663,75.6846,1.8333,-3.9784,30,
107,1,6,2,347,1,195.941,315.5034,346.4328,2,1,3,2,1,0,0,315.5034,326.1394,1.3333,10.636,30,
107,1,6,2,348,1,106.7758,228.1557,19.3227,1,3,2,1,1,0,0,106.7758,119.9478,1.6943,13.1721,20,
107,1,6,2,349,1,16.1481,136.7947,46.8158,3,1,2,3,1,0,0,46.8158,33.9666,1.3818,-12.8492,20,
107,1,6,2,350,0,346.4404,166.8831,225.7325,0,0,0,1,0,0,0,346.4404,334.6543,2.9305,-11.7861,30,
107,1,6,2,351,1,255.7971,226.3939,18.2247,3,2,1,1,0,0,1,255.7971,233.5491,1.7984,-22.248,10,
107,1,6,2,352,0,75.5483,347.8292,256.3717,0,0,0,3,0,0,0,256.3717,205.5506,1.0416,-50.8211,0,
107,1,6,2,353,1,288.1388,77.2337,19.0555,1,3,2,1,1,0,0,288.1388,226.118,1.7985,-62.0208,0,
107,1,6,2,354,0,196.9487,15.7521,166.6685,0,0,0,3,0,0,0,166.6685,156.6388,1.9651,-10.0298,30,
107,1,6,2,355,0,106.9478,257.4507,79.4345,0,0,0,1,0,0,0,106.9478,140.8738,0.95818,33.9259,0,
107,1,6,2,356,1,319.31,345.6282,258.2279,3,1,2,3,1,0,0,258.2279,238.5048,1.3262,-19.7231,20,
107,1,6,2,357,1,138.9567,288.2831,107.7184,2,3,1,2,1,0,0,288.2831,286.0496,1.4583,-2.2334,40,
107,1,6,2,358,0,315.156,289.1379,16.3213,0,0,0,3,0,0,0,16.3213,12.2863,1.4721,-4.035,30,
107,1,6,2,359,0,258.0154,135.9201,225.4373,0,0,0,1,0,0,0,258.0154,256.4987,1.6666,-1.5167,40,
107,1,6,2,360,1,139.5235,198.8365,47.8133,2,1,3,2,1,0,0,198.8365,207.2291,1.972,8.3925,30,
107,1,7,1,361,1,137.7436,195.0777,75.4734,2,1,3,2,1,0,0,195.0777,218.225,1.3679,23.1473,10,
107,1,7,1,362,1,256.7246,198.4634,348.583,1,2,3,1,1,0,0,256.7246,243.0361,1.7846,-13.6885,20,
107,1,7,1,363,1,135.1638,79.2181,258.8515,2,1,3,2,1,0,0,79.2181,64.2972,0.98605,-14.9209,20,
107,1,7,1,364,1,318.2542,229.9111,195.9692,1,2,3,2,0,1,0,229.9111,225.5998,1.7498,-4.3113,30,
107,1,7,1,365,1,108.4551,288.2361,228.1172,3,1,2,3,1,0,0,228.1172,52.4316,1.4164,-175.6856,0,
107,1,7,1,366,0,346.1287,288.3308,49.3567,0,0,0,1,0,0,0,346.1287,341.4747,1.6318,-4.654,30,
107,1,7,1,367,1,228.7525,46.6696,168.1642,3,2,1,3,1,0,0,168.1642,128.4,1.1666,-39.7641,0,
107,1,7,1,368,1,226.3755,139.1398,258.9639,1,2,3,3,0,0,1,258.9639,133.649,1.4512,-125.3149,0,
107,1,7,1,369,1,79.0965,319.6324,17.5706,3,1,2,2,0,0,1,319.6324,327.8341,1.521,8.2018,30,
107,1,7,1,370,1,319.6235,15.2778,76.9202,2,1,3,1,0,1,0,319.6235,332.9018,1.5832,13.2783,20,
107,1,7,1,371,0,319.6585,285.5445,48.2585,0,0,0,1,0,0,0,319.6585,330.8967,1.2221,11.2382,30,
107,1,7,1,372,0,106.2626,258.2717,15.3005,0,0,0,3,0,0,0,15.3005,55.0806,1.111,39.7802,0,
107,1,7,1,373,0,49.0672,258.9382,345.6216,0,0,0,2,0,0,0,258.9382,243.0834,1.8748,-15.8548,20,
107,1,7,1,374,1,166.1154,197.5488,18.9387,3,2,1,1,0,0,1,166.1154,149.1856,1.4096,-16.9297,20,
107,1,7,1,375,0,135.6449,196.0742,226.4641,0,0,0,1,0,0,0,135.6449,145.462,1.0833,9.8171,30,
107,1,7,1,376,1,258.7972,46.9971,227.8371,3,2,1,1,0,0,1,258.7972,205.7482,1.5901,-53.049,0,
107,1,7,1,377,1,19.3937,136.9647,106.2132,3,1,2,3,1,0,0,106.2132,80.1895,1.361,-26.0236,10,
107,1,7,1,378,1,198.1299,16.6345,346.5555,1,3,2,2,0,0,1,16.6345,25.3156,1.2987,8.6811,30,
107,1,7,1,379,0,255.9533,317.2465,78.8433,0,0,0,2,0,0,0,317.2465,317.4186,1.1941,0.17211,40,
107,1,7,1,380,1,106.7368,288.8994,198.5417,1,3,2,3,0,1,0,198.5417,172.5808,1.5349,-25.9609,10,
107,1,7,1,381,1,226.6913,289.8702,169.7739,1,3,2,1,1,0,0,226.6913,219.5043,1.0905,-7.187,30,
107,1,7,1,382,1,75.0635,45.6611,226.9403,1,3,2,1,1,0,0,75.0635,60.5393,1.5624,-14.5242,20,
107,1,7,1,383,0,195.7207,48.1759,349.0121,0,0,0,2,0,0,0,48.1759,45.0637,0.93047,-3.1122,30,
107,1,7,1,384,1,135.4763,286.2294,199.6733,3,1,2,2,0,0,1,286.2294,46.9573,0.99993,120.7279,0,
107,1,7,1,385,0,107.2227,346.6329,286.4365,0,0,0,1,0,0,0,107.2227,120.3542,1.3055,13.1314,20,
107,1,7,1,386,0,167.3073,257.9357,47.388,0,0,0,3,0,0,0,47.388,50.633,1.4231,3.245,30,
107,1,7,1,387,0,105.1816,45.943,347.8877,0,0,0,1,0,0,0,105.1816,113.7642,1.0694,8.5825,30,
107,1,7,1,388,0,197.7527,139.9306,168.4489,0,0,0,2,0,0,0,139.9306,133.3187,1.2706,-6.6119,30,
107,1,7,1,389,1,106.463,49.1621,137.8526,2,3,1,2,1,0,0,49.1621,57.3699,0.88184,8.2078,30,
107,1,7,1,390,0,18.0356,289.7875,76.6533,0,0,0,1,0,0,0,18.0356,21.1765,1.7778,3.1409,30,
107,1,7,1,391,1,45.3576,315.0784,289.8684,3,1,2,3,1,0,0,289.8684,337.7995,1.1111,47.9311,0,
107,1,7,1,392,1,78.5901,105.9445,317.1697,3,1,2,3,1,0,0,317.1697,343.1851,1.3193,26.0154,10,
107,1,7,1,393,1,319.7139,18.3713,226.9283,2,3,1,2,1,0,0,18.3713,13.2183,2.1526,-5.153,30,
107,1,7,1,394,1,196.9913,225.6865,319.7638,3,2,1,3,1,0,0,319.7638,340.4376,1.2984,20.6738,20,
107,1,7,1,395,0,75.4069,138.9374,255.872,0,0,0,1,0,0,0,75.4069,49.108,1.7013,-26.2989,10,
107,1,7,1,396,0,347.3247,229.1204,79.3594,0,0,0,3,0,0,0,79.3594,49.0744,1.9373,-30.285,0,
107,1,7,1,397,0,199.4692,169.205,48.4164,0,0,0,1,0,0,0,199.4692,203.0738,1.1805,3.6046,30,
107,1,7,1,398,1,106.0224,15.3143,48.1119,3,1,2,3,1,0,0,48.1119,47.8881,1.1253,-0.22384,40,
107,1,7,1,399,1,347.7221,289.2307,45.2035,1,3,2,1,1,0,0,347.7221,344.9462,1.2013,-2.7758,40,
107,1,7,1,400,1,288.0459,259.8347,198.8666,1,3,2,1,1,0,0,288.0459,296.2947,1.736,8.2488,30,
107,1,7,1,401,0,138.5923,169.9766,75.4185,0,0,0,1,0,0,0,138.5923,122.3583,2.3748,-16.234,20,
107,1,7,1,402,1,138.4918,47.2984,315.7883,3,1,2,3,1,0,0,315.7883,322.6599,1.3194,6.8716,30,
107,1,7,1,403,1,318.6274,135.6952,168.1628,3,1,2,1,0,1,0,318.6274,137.1712,1.5415,178.5437,0,
107,1,7,1,404,1,198.2711,316.0916,345.5957,3,1,2,3,1,0,0,345.5957,342.9585,1.0414,-2.6371,40,
107,1,7,1,405,1,19.5455,197.2517,168.7432,1,3,2,3,0,1,0,168.7432,347.0447,1.118,178.3015,0,
107,1,7,1,406,0,196.9978,48.2766,317.8342,0,0,0,3,0,0,0,317.8342,332.3177,0.90253,14.4834,20,
107,1,7,1,407,1,18.4428,258.0195,106.9348,2,3,1,3,0,1,0,106.9348,89.5079,1.4929,-17.4268,20,
107,1,7,1,408,0,18.089,137.9711,318.3294,0,0,0,3,0,0,0,318.3294,323.1262,1.3471,4.7968,30,
107,1,7,1,409,0,285.4329,319.6342,15.7424,0,0,0,1,0,0,0,285.4329,308.0379,1.7843,22.605,10,
107,1,7,1,410,0,167.2618,137.6668,287.6333,0,0,0,2,0,0,0,137.6668,77.7218,1.0551,-59.9451,0,
107,1,7,1,411,1,257.6176,76.6841,136.6619,3,1,2,3,1,0,0,136.6619,66.5198,1.3888,-70.1421,0,
107,1,7,1,412,1,318.6127,255.6712,169.2655,2,3,1,2,1,0,0,255.6712,67.6381,0.81943,171.9669,0,
107,1,7,1,413,1,195.6399,167.3218,78.713,1,3,2,1,1,0,0,195.6399,187.3205,0.90966,-8.3194,30,
107,1,7,1,414,0,255.0215,348.2625,136.8484,0,0,0,2,0,0,0,348.2625,325.3454,1.2153,-22.9171,10,
107,1,7,1,415,0,169.2599,195.5886,108.2863,0,0,0,3,0,0,0,108.2863,99.7947,1.7707,-8.4916,30,
107,1,7,1,416,0,108.0519,256.2399,137.5898,0,0,0,1,0,0,0,108.0519,126.2532,1.9929,18.2013,20,
107,1,7,1,417,1,315.776,79.9704,137.2512,1,2,3,1,1,0,0,315.776,302.9925,2.2637,-12.7835,20,
107,1,7,1,418,1,109.5576,45.6649,285.2108,2,1,3,3,0,0,1,285.2108,310.466,1.1037,25.2552,10,
107,1,7,1,419,0,285.9982,227.6508,348.1368,0,0,0,1,0,0,0,285.9982,306.0487,1.3402,20.0505,20,
107,1,7,1,420,1,285.1161,195.8806,349.3046,2,3,1,2,1,0,0,195.8806,188.9848,2.715,-6.8958,30,
107,1,8,1,421,1,139.1592,226.9724,75.4832,2,3,1,2,1,0,0,226.9724,223.4934,1.5554,-3.479,30,
107,1,8,1,422,1,258.0006,19.9983,285.6459,3,1,2,3,1,0,0,285.6459,320.1655,1.1805,34.5196,0,
107,1,8,1,423,0,347.863,79.9688,136.8148,0,0,0,2,0,0,0,79.9688,68.0583,0.77759,-11.9106,30,
107,1,8,1,424,1,138.8927,289.0539,347.4898,3,2,1,3,1,0,0,347.4898,111.0269,1.7082,123.5371,0,
107,1,8,1,425,0,139.122,45.8653,229.3182,0,0,0,3,0,0,0,229.3182,186.8755,1.5974,-42.4427,0,
107,1,8,1,426,1,138.0311,78.9619,49.1808,2,1,3,2,1,0,0,78.9619,79.0059,0.98599,0.044007,40,
107,1,8,1,427,0,46.1867,195.6983,256.1037,0,0,0,2,0,0,0,195.6983,219.4242,1.5346,23.7259,10,
107,1,8,1,428,1,346.4768,289.5354,227.4644,3,2,1,3,1,0,0,227.4644,204.6252,1.7776,-22.8392,10,
107,1,8,1,429,1,47.187,79.2999,15.0445,1,3,2,1,1,0,0,47.187,46.8914,2.1665,-0.29555,40,
107,1,8,1,430,0,79.2645,348.4328,109.7906,0,0,0,2,0,0,0,348.4328,328.8479,1.4998,-19.5848,20,
107,1,8,1,431,1,166.9384,345.2837,198.4479,3,2,1,3,1,0,0,198.4479,178.764,1.486,-19.6839,20,
107,1,8,1,432,0,46.1005,196.179,169.0506,0,0,0,3,0,0,0,169.0506,146.4506,1.2846,-22.6001,10,
107,1,8,1,433,0,285.1488,259.3335,319.4721,0,0,0,2,0,0,0,259.3335,228.2605,1.3957,-31.073,0,
107,1,8,1,434,0,315.0558,256.1726,168.5349,0,0,0,1,0,0,0,315.0558,314.8278,1.7498,-0.22801,40,
107,1,8,1,435,1,138.3282,106.1507,49.0244,2,3,1,2,1,0,0,106.1507,73.3941,0.99977,-32.7567,0,
107,1,8,1,436,0,167.1549,138.8245,349.9823,0,0,0,3,0,0,0,349.9823,339.4608,1.1044,-10.5215,30,
107,1,8,1,437,0,107.9765,77.5306,228.882,0,0,0,2,0,0,0,77.5306,73.2823,0.96558,-4.2482,30,
107,1,8,1,438,1,165.7078,228.0405,49.6531,3,2,1,1,0,0,1,165.7078,150.3804,1.4235,-15.3274,20,
107,1,8,1,439,1,348.1345,49.685,316.5997,2,1,3,3,0,0,1,316.5997,313.7619,0.86105,-2.8378,40,
107,1,8,1,440,1,75.7592,348.6651,45.1985,2,1,3,2,1,0,0,348.6651,337.5648,1.1596,-11.1002,30,
107,1,8,1,441,1,166.6833,319.4168,46.6683,3,2,1,3,1,0,0,46.6683,38.514,0.93736,-8.1543,30,
107,1,8,1,442,1,78.6986,197.224,109.252,1,2,3,2,0,1,0,197.224,209.1983,1.2429,11.9743,30,
107,1,8,1,443,1,227.4811,166.4383,105.9151,1,3,2,1,1,0,0,227.4811,206.1409,1.354,-21.3402,10,
107,1,8,1,444,0,226.7599,195.5008,288.965,0,0,0,1,0,0,0,226.7599,214.5968,1.2499,-12.1631,20,
107,1,8,1,445,1,228.4323,319.7786,106.5395,1,2,3,1,1,0,0,228.4323,224.2349,1.0971,-4.1974,30,
107,1,8,1,446,0,79.7326,317.4622,348.7411,0,0,0,1,0,0,0,79.7326,218.6958,1.4374,138.9632,0,
107,1,8,1,447,0,45.9115,197.797,18.1324,0,0,0,3,0,0,0,18.1324,32.5494,1.5208,14.417,20,
107,1,8,1,448,1,18.6621,168.1551,287.341,3,2,1,3,1,0,0,287.341,326.4699,1.6457,39.1289,0,
107,1,8,1,449,1,136.0884,285.0426,346.5031,3,1,2,3,1,0,0,346.5031,35.6265,1.1944,49.1233,0,
107,1,8,1,450,0,315.1533,349.0435,225.2357,0,0,0,2,0,0,0,349.0435,339.3789,1.236,-9.6646,30,
107,1,8,1,451,1,138.6936,315.0693,168.3956,2,3,1,3,0,1,0,168.3956,160.2462,1.3677,-8.1494,30,
107,1,8,1,452,1,46.0342,105.1868,78.3168,3,2,1,3,1,0,0,78.3168,83.0896,1.5832,4.7728,30,
107,1,8,1,453,0,165.0947,45.9217,15.1337,0,0,0,2,0,0,0,45.9217,53.0212,0.88229,7.0995,30,
107,1,8,1,454,0,348.5217,318.8731,289.1133,0,0,0,3,0,0,0,289.1133,292.8745,0.93742,3.7612,30,
107,1,8,1,455,1,139.6704,47.9709,317.9655,2,1,3,2,1,0,0,47.9709,49.364,1.0416,1.3931,40,
107,1,8,1,456,1,286.0016,45.0729,168.8158,2,3,1,2,1,0,0,45.0729,45.3306,0.81239,0.25765,40,
107,1,8,1,457,1,195.2941,256.1198,15.8399,3,1,2,3,1,0,0,15.8399,28.783,1.7915,12.9431,20,
107,1,8,1,458,1,138.5184,169.1855,258.6365,1,2,3,1,1,0,0,138.5184,146.3928,1.3333,7.8744,30,
107,1,8,1,459,1,19.902,108.5641,259.1282,3,2,1,2,0,1,0,108.5641,98.9032,1.5064,-9.6609,30,
107,1,8,1,460,1,108.5872,226.0126,318.2188,2,1,3,2,1,0,0,226.0126,209.7208,2.2776,-16.2918,20,
107,1,8,1,461,0,19.6597,105.4666,288.6939,0,0,0,3,0,0,0,288.6939,289.8541,1.0973,1.1602,40,
107,1,8,1,462,1,109.9663,18.7877,196.3753,3,1,2,2,0,0,1,18.7877,34.4975,1.2086,15.7099,20,
107,1,8,1,463,0,139.1878,168.7421,197.9193,0,0,0,3,0,0,0,197.9193,219.1917,2.0899,21.2724,10,
107,1,8,1,464,0,136.7104,259.36,16.3401,0,0,0,3,0,0,0,16.3401,31.7766,1.4859,15.4365,20,
107,1,8,1,465,1,136.4382,79.6219,316.4924,3,2,1,2,0,1,0,79.6219,51.4409,0.86099,-28.181,10,
107,1,8,1,466,1,196.6333,136.0981,167.5911,3,1,2,3,1,0,0,167.5911,329.3099,1.2777,161.7188,0,
107,1,8,1,467,1,226.3809,318.4812,259.4068,3,2,1,3,1,0,0,259.4068,223.6104,1.7287,-35.7963,0,
107,1,8,1,468,0,18.9916,169.3163,138.9898,0,0,0,2,0,0,0,169.3163,159.7892,1.3402,-9.5271,30,
107,1,8,1,469,1,15.3526,75.3001,108.3079,3,1,2,3,1,0,0,108.3079,87.8028,1.7915,-20.5051,20,
107,1,8,1,470,0,46.2786,346.8916,169.9687,0,0,0,1,0,0,0,46.2786,48.6573,1.7221,2.3787,40,
107,1,8,1,471,1,345.2622,106.6171,78.9984,3,1,2,3,1,0,0,78.9984,77.2236,1.5971,-1.7748,40,
107,1,8,1,472,0,348.2674,166.2214,78.7896,0,0,0,3,0,0,0,78.7896,65.5344,1.5485,-13.2552,20,
107,1,8,1,473,1,106.559,257.9588,76.8881,1,2,3,2,0,1,0,257.9588,251.9372,2.1804,-6.0216,30,
107,1,8,1,474,1,317.6116,229.0412,257.2379,2,1,3,3,0,0,1,257.2379,221.4245,1.3679,-35.8134,0,
107,1,8,1,475,1,287.5106,197.8513,19.2574,1,3,2,1,1,0,0,287.5106,304.5312,1.6939,17.0206,20,
107,1,8,1,476,0,227.7234,199.2796,318.2134,0,0,0,1,0,0,0,227.7234,225.2839,1.0694,-2.4395,40,
107,1,8,1,477,1,76.0947,286.1864,255.0432,1,3,2,3,0,1,0,255.0432,61.0065,1.479,165.9634,0,
107,1,8,1,478,1,317.4562,198.8708,225.7391,2,3,1,3,0,1,0,225.7391,212.9892,1.2153,-12.7499,20,
107,1,8,1,479,1,46.7157,195.3171,168.0624,1,3,2,2,0,0,1,195.3171,202.0566,1.5624,6.7395,30,
107,1,8,1,480,1,285.5423,79.2688,319.5543,3,1,2,3,1,0,0,319.5543,339.3346,1.0971,19.7804,20,
