Subject,Session,Block,Condition,Trial,whetherCued,leftStim,rightStim,midStim,remCueLoc,fogCueLoc,neutralCueLoc,probeCueLoc,probeRem,probeForget,probeNeutral,Target,Estimate,RT,Error,Points
112,1,1,2,1,0,136.1214,256.3453,18.3652,0,0,0,3,0,0,0,18.3652,345.4245,1.4334,-32.9406,0,
112,1,1,2,2,1,289.4795,225.4954,105.2208,2,3,1,2,1,0,0,225.4954,28.4629,2.7584,162.9675,0,
112,1,1,2,3,1,347.5064,287.1586,109.9878,1,3,2,1,1,0,0,347.5064,129.8044,1.0416,142.298,0,
112,1,1,2,4,0,348.6529,108.2324,289.1658,0,0,0,2,0,0,0,108.2324,117.9326,2.3167,9.7002,30,
112,1,1,2,5,0,107.4617,228.4737,289.8637,0,0,0,3,0,0,0,289.8637,306.6134,1.1829,16.7497,20,
112,1,1,2,6,1,138.3022,255.2378,226.7439,1,3,2,2,0,0,1,255.2378,316.5352,3.2083,61.2974,0,
112,1,1,2,7,1,197.5189,257.448,49.3852,1,3,2,1,1,0,0,197.5189,2.2982,2.9834,164.7793,0,
112,1,1,2,8,1,105.0963,165.4194,19.874,3,1,2,3,1,0,0,19.874,205.4466,1.7001,-174.4275,0,
112,1,1,2,9,1,349.6502,286.9951,105.237,2,3,1,2,1,0,0,286.9951,56.7235,2.3918,129.7284,0,
112,1,1,2,10,1,259.389,197.9122,285.3534,3,2,1,3,1,0,0,285.3534,319.8123,0.75833,34.4589,0,
112,1,1,2,11,1,317.5194,78.234,226.5387,2,1,3,2,1,0,0,78.234,110.5393,1.0084,32.3053,0,
112,1,1,2,12,0,226.4331,199.0041,19.4806,0,0,0,2,0,0,0,199.0041,209.6062,4.4919,10.6021,30,
112,1,1,2,13,1,199.1477,319.2454,226.8627,2,3,1,2,1,0,0,319.2454,314.7631,1.3167,-4.4824,30,
112,1,1,2,14,1,198.7837,137.0852,229.8589,3,2,1,1,0,0,1,198.7837,357.0991,5.6001,158.3153,0,
112,1,1,2,15,1,317.252,136.0284,79.4983,2,3,1,2,1,0,0,136.0284,129.2597,2.1333,-6.7687,30,
112,1,1,2,16,1,166.9501,227.4895,288.474,3,1,2,3,1,0,0,288.474,307.8119,0.63343,19.3379,20,
112,1,1,2,17,0,255.5852,109.0734,346.6243,0,0,0,3,0,0,0,346.6243,343.9828,1.9167,-2.6415,40,
112,1,1,2,18,0,19.1594,45.6717,75.3023,0,0,0,2,0,0,0,45.6717,57.4254,1.1751,11.7537,30,
112,1,1,2,19,1,139.9843,17.7677,197.5773,1,2,3,1,1,0,0,139.9843,161.8232,1.4501,21.839,10,
112,1,1,2,20,1,169.6556,105.9539,16.2929,3,2,1,1,0,0,1,169.6556,180,0.79171,10.3444,30,
112,1,1,2,21,1,198.6008,256.7345,227.585,1,3,2,1,1,0,0,198.6008,174.5847,1.1334,-24.0161,10,
112,1,1,2,22,1,47.1514,228.4688,289.7261,3,2,1,3,1,0,0,289.7261,308.1585,0.94186,18.4324,20,
112,1,1,2,23,1,288.3452,197.5011,346.09,3,2,1,3,1,0,0,346.09,322.9104,1.2335,-23.1796,10,
112,1,1,2,24,1,229.3193,135.4885,169.5403,2,3,1,2,1,0,0,135.4885,143.1263,1.3168,7.6378,30,
112,1,1,2,25,0,137.5392,347.928,18.8144,0,0,0,3,0,0,0,18.8144,5.1465,1.3084,-13.668,20,
112,1,1,2,26,1,17.7694,108.4003,196.8359,3,1,2,3,1,0,0,196.8359,195.2489,2.2834,-1.5871,40,
112,1,1,2,27,0,135.7013,16.3007,195.4341,0,0,0,1,0,0,0,135.7013,172.8453,2.75,37.144,0,
112,1,1,2,28,0,346.1034,285.0065,135.9459,0,0,0,1,0,0,0,346.1034,356.0436,2.3501,9.9402,30,
112,1,1,2,29,1,105.3418,17.1816,75.8693,3,2,1,3,1,0,0,75.8693,47.842,1.7167,-28.0272,10,
112,1,1,2,30,1,166.1401,16.8543,319.4546,1,3,2,1,1,0,0,166.1401,147.3399,1.2418,-18.8002,20,
112,1,1,2,31,1,347.6621,78.5825,225.8965,3,2,1,3,1,0,0,225.8965,218.0022,1.0668,-7.8943,30,
112,1,1,2,32,1,169.6783,319.0936,48.6413,2,1,3,1,0,1,0,169.6783,NaN,100000,999,0,
112,1,1,2,33,1,108.812,17.8803,78.7383,3,2,1,3,1,0,0,78.7383,242.8064,1.2001,164.0681,0,
112,1,1,2,34,0,347.6614,136.397,49.7312,0,0,0,3,0,0,0,49.7312,20.4551,1.2752,-29.2761,10,
112,1,1,2,35,0,78.6346,196.8692,47.9079,0,0,0,1,0,0,0,78.6346,135.2893,1.6002,56.6547,0,
112,1,1,2,36,1,45.7597,16.9855,196.8736,3,1,2,2,0,0,1,16.9855,61.9007,3.5585,44.9151,0,
112,1,1,2,37,1,138.2116,316.1063,79.1853,3,1,2,3,1,0,0,79.1853,241.1254,0.86692,161.9401,0,
112,1,1,2,38,1,319.2929,289.5553,168.4982,3,2,1,3,1,0,0,168.4982,152.7343,1.3667,-15.7639,20,
112,1,1,2,39,1,287.6468,199.1499,49.2938,1,2,3,3,0,0,1,49.2938,318.1923,1.6667,-91.1015,0,
112,1,1,2,40,1,169.2518,139.5582,198.1964,1,2,3,2,0,1,0,139.5582,NaN,100000,999,0,
112,1,1,2,41,0,169.1329,48.3844,286.038,0,0,0,3,0,0,0,286.038,304.8198,1.0999,18.7818,20,
112,1,1,2,42,0,287.2569,316.9132,48.9482,0,0,0,2,0,0,0,316.9132,316.9775,1.9501,0.064318,40,
112,1,1,2,43,0,228.7938,349.9761,315.9329,0,0,0,3,0,0,0,315.9329,299.3778,1.375,-16.555,20,
112,1,1,2,44,1,285.9688,47.1618,258.7458,2,3,1,2,1,0,0,47.1618,67.9864,1.7917,20.8245,20,
112,1,1,2,45,0,19.6749,137.3974,346.159,0,0,0,1,0,0,0,19.6749,11.5993,3.6669,-8.0756,30,
112,1,1,2,46,1,287.6548,259.506,317.7028,2,3,1,2,1,0,0,259.506,246.1443,2.7168,-13.3618,20,
112,1,1,2,47,1,105.9911,165.9754,316.6342,1,2,3,1,1,0,0,105.9911,144.8139,1.3918,38.8228,0,
112,1,1,2,48,0,109.0699,259.4922,77.1462,0,0,0,1,0,0,0,109.0699,125.8249,1.4585,16.755,20,
112,1,1,2,49,0,315.4649,347.3174,285.0467,0,0,0,1,0,0,0,315.4649,0.51307,1.7252,45.0481,0,
112,1,1,2,50,1,77.1828,225.2461,105.2482,2,3,1,2,1,0,0,225.2461,234.0822,2.6085,8.8361,30,
112,1,1,2,51,0,17.3062,228.1966,259.5867,0,0,0,2,0,0,0,228.1966,231.0932,2.0667,2.8966,40,
112,1,1,2,52,0,19.9049,195.6352,286.1612,0,0,0,2,0,0,0,195.6352,227.8355,1.8168,32.2003,0,
112,1,1,2,53,0,19.2845,75.217,318.4581,0,0,0,1,0,0,0,19.2845,16.4952,1.8918,-2.7893,40,
112,1,1,2,54,0,79.095,348.1246,228.6928,0,0,0,1,0,0,0,79.095,14.1872,1.4835,-64.9078,0,
112,1,1,2,55,0,49.4771,227.9126,257.9137,0,0,0,3,0,0,0,257.9137,192.687,2.9086,-65.2267,0,
112,1,1,2,56,0,47.0319,136.931,228.049,0,0,0,2,0,0,0,136.931,232.1185,2.9085,95.1875,0,
112,1,1,2,57,0,77.6151,16.6265,49.1592,0,0,0,3,0,0,0,49.1592,56.2184,1.7918,7.0592,30,
112,1,1,2,58,0,137.6428,345.2572,78.7844,0,0,0,2,0,0,0,345.2572,127.5884,3.6169,142.3312,0,
112,1,1,2,59,1,168.7425,317.7165,226.6907,3,2,1,2,0,1,0,317.7165,NaN,100000,999,0,
112,1,1,2,60,1,315.1258,197.0721,138.657,1,2,3,1,1,0,0,315.1258,325.3881,1.4751,10.2624,30,
112,1,2,2,61,1,315.8145,169.192,195.8378,2,3,1,2,1,0,0,169.192,129.8599,1.1417,-39.3321,0,
112,1,2,2,62,0,109.7017,135.0292,228.0515,0,0,0,3,0,0,0,228.0515,218.8648,2.1251,-9.1867,30,
112,1,2,2,63,1,256.4523,47.0128,289.3103,1,2,3,1,1,0,0,256.4523,280.4929,1.5417,24.0406,10,
112,1,2,2,64,0,319.2054,76.7725,167.1503,0,0,0,3,0,0,0,167.1503,156.3892,1.9919,-10.7611,30,
112,1,2,2,65,1,289.8173,135.4295,167.5025,2,3,1,2,1,0,0,135.4295,127.2977,0.89172,-8.1318,30,
112,1,2,2,66,1,46.5193,197.4165,346.6891,2,3,1,2,1,0,0,197.4165,213.1035,1.4417,15.687,20,
112,1,2,2,67,1,79.9262,107.7974,169.668,1,2,3,1,1,0,0,79.9262,72.2183,1.5167,-7.7079,30,
112,1,2,2,68,1,135.5422,165.1806,228.0905,1,2,3,1,1,0,0,135.5422,142.366,2.0916,6.8238,30,
112,1,2,2,69,0,259.4502,346.651,166.1485,0,0,0,1,0,0,0,259.4502,240.8871,0.97499,-18.5631,20,
112,1,2,2,70,0,135.5697,19.8928,79.243,0,0,0,2,0,0,0,19.8928,125.7566,3.1086,105.8638,0,
112,1,2,2,71,1,285.5402,17.2994,137.2544,1,3,2,1,1,0,0,285.5402,288.4361,1.4501,2.8959,40,
112,1,2,2,72,0,138.7045,347.534,165.9996,0,0,0,2,0,0,0,347.534,154.11,3.7334,166.576,0,
112,1,2,2,73,1,169.3879,345.0718,46.4715,1,2,3,2,0,1,0,345.0718,NaN,100000,999,0,
112,1,2,2,74,1,227.7164,78.5126,19.7822,1,3,2,2,0,0,1,78.5126,67.3784,1.2418,-11.1342,30,
112,1,2,2,75,1,78.8751,319.5709,48.9128,1,3,2,1,1,0,0,78.8751,351.7489,2.2751,-87.1262,0,
112,1,2,2,76,0,48.4957,168.9813,137.2079,0,0,0,1,0,0,0,48.4957,163.2249,1.9834,114.7292,0,
112,1,2,2,77,1,315.7287,287.9252,345.3668,3,1,2,2,0,0,1,287.9252,307.296,1.8168,19.3708,20,
112,1,2,2,78,0,286.8252,226.5457,315.6046,0,0,0,1,0,0,0,286.8252,300.0884,2.0084,13.2633,20,
112,1,2,2,79,0,256.6999,319.2336,46.2303,0,0,0,3,0,0,0,46.2303,37.6883,1.2916,-8.542,30,
112,1,2,2,80,1,135.68,78.9445,105.462,1,3,2,1,1,0,0,135.68,124.209,1.2252,-11.4711,30,
112,1,2,2,81,1,75.0988,319.8215,349.8519,1,2,3,1,1,0,0,75.0988,59.6722,1.7667,-15.4266,20,
112,1,2,2,82,1,19.6916,226.2771,107.6658,3,2,1,3,1,0,0,107.6658,116.5908,1.0584,8.925,30,
112,1,2,2,83,0,138.9798,226.1669,78.0042,0,0,0,3,0,0,0,78.0042,126.9372,1.3334,48.933,0,
112,1,2,2,84,1,346.4868,16.9821,317.1038,2,1,3,3,0,0,1,317.1038,111.2719,1.5167,154.1681,0,
112,1,2,2,85,1,317.7541,79.3545,195.2113,1,3,2,1,1,0,0,317.7541,316.4615,1.5751,-1.2926,40,
112,1,2,2,86,1,47.5997,169.9459,257.4496,1,2,3,1,1,0,0,47.5997,57.0466,1.9918,9.447,30,
112,1,2,2,87,0,79.0846,195.9474,105.6185,0,0,0,2,0,0,0,195.9474,193.1684,1.4417,-2.7789,40,
112,1,2,2,88,1,76.6599,319.1987,286.8586,3,1,2,3,1,0,0,286.8586,303.6204,1.1167,16.7618,20,
112,1,2,2,89,1,135.784,76.6302,46.5703,1,2,3,1,1,0,0,135.784,139.722,1.075,3.9379,30,
112,1,2,2,90,0,286.0726,228.3995,167.7865,0,0,0,2,0,0,0,228.3995,235.1097,3.4919,6.7102,30,
112,1,2,2,91,1,287.0116,195.9092,139.2813,3,2,1,1,0,0,1,287.0116,349.9094,1.9167,62.8978,0,
112,1,2,2,92,1,225.9992,318.0367,107.7152,3,2,1,3,1,0,0,107.7152,305.6546,1.0918,-162.0607,0,
112,1,2,2,93,0,48.791,169.4352,15.344,0,0,0,1,0,0,0,48.791,22.3947,1.0417,-26.3963,10,
112,1,2,2,94,0,16.9081,317.8384,169.4393,0,0,0,3,0,0,0,169.4393,201.542,1.8834,32.1027,0,
112,1,2,2,95,0,139.6308,166.4925,256.6904,0,0,0,1,0,0,0,139.6308,141.6243,1.6417,1.9934,40,
112,1,2,2,96,0,346.3991,77.235,47.9379,0,0,0,3,0,0,0,47.9379,37.2383,1.5084,-10.6995,30,
112,1,2,2,97,0,349.442,316.1658,289.308,0,0,0,2,0,0,0,316.1658,299.308,1.6584,-16.8579,20,
112,1,2,2,98,1,287.6372,108.625,348.0371,2,1,3,1,0,1,0,287.6372,NaN,100000,999,0,
112,1,2,2,99,1,349.0746,135.7025,259.3993,2,3,1,3,0,1,0,259.3993,NaN,100000,999,0,
112,1,2,2,100,0,15.4219,229.8604,285.1573,0,0,0,1,0,0,0,15.4219,9.0979,1.8335,-6.324,30,
112,1,2,2,101,1,318.2673,77.4483,349.8643,3,1,2,3,1,0,0,349.8643,12.6899,1.3418,22.8256,10,
112,1,2,2,102,1,287.6205,225.601,105.889,3,2,1,2,0,1,0,225.601,NaN,100000,999,0,
112,1,2,2,103,1,77.9122,257.105,345.4603,1,2,3,1,1,0,0,77.9122,61.926,1.55,-15.9862,20,
112,1,2,2,104,0,15.8762,165.966,258.0821,0,0,0,2,0,0,0,165.966,222.8089,2.6418,56.8429,0,
112,1,2,2,105,0,288.861,317.3768,18.4045,0,0,0,2,0,0,0,317.3768,300.857,1.2834,-16.5197,20,
112,1,2,2,106,1,139.1315,79.956,197.6197,1,3,2,1,1,0,0,139.1315,138.0909,1.3668,-1.0406,40,
112,1,2,2,107,1,317.3578,347.715,225.2985,1,2,3,2,0,1,0,347.715,NaN,100000,999,0,
112,1,2,2,108,1,79.1667,256.0186,227.7221,3,2,1,1,0,0,1,79.1667,212.7872,3.4752,133.6204,0,
112,1,2,2,109,1,165.6614,49.3524,348.0148,1,3,2,1,1,0,0,165.6614,183.1293,2.7336,17.4679,20,
112,1,2,2,110,0,76.8968,319.3234,17.0998,0,0,0,2,0,0,0,319.3234,305.7368,2.6835,-13.5865,20,
112,1,2,2,111,1,349.1405,287.5372,16.8308,3,1,2,1,0,1,0,349.1405,NaN,100000,999,0,
112,1,2,2,112,1,167.8456,109.3752,136.7429,3,2,1,1,0,0,1,167.8456,147.6313,3.6752,-20.2143,20,
112,1,2,2,113,1,17.3376,75.7067,45.3407,2,1,3,2,1,0,0,75.7067,50.7243,1.2503,-24.9824,10,
112,1,2,2,114,0,346.2021,48.4245,319.1963,0,0,0,2,0,0,0,48.4245,12.7479,2.5251,-35.6766,0,
112,1,2,2,115,0,316.9479,48.8765,285.8968,0,0,0,1,0,0,0,316.9479,178.1076,3.0084,-138.8403,0,
112,1,2,2,116,0,169.6136,317.8213,17.1573,0,0,0,2,0,0,0,317.8213,135.7045,3.1169,177.8832,0,
112,1,2,2,117,1,79.9629,257.2792,17.1302,3,1,2,3,1,0,0,17.1302,18.2548,1.6084,1.1246,40,
112,1,2,2,118,0,348.4165,318.0428,46.0983,0,0,0,1,0,0,0,348.4165,348.4602,1.4251,0.04363,40,
112,1,2,2,119,0,169.7606,319.8793,345.1546,0,0,0,1,0,0,0,169.7606,176.9694,1.2918,7.2088,30,
112,1,2,2,120,0,196.2163,77.8571,319.9086,0,0,0,2,0,0,0,77.8571,62.5523,1.0335,-15.3047,20,
112,1,3,1,121,0,315.19,49.7712,258.7119,0,0,0,2,0,0,0,49.7712,61.1494,3.0419,11.3782,30,
112,1,3,1,122,0,256.3059,75.474,107.2548,0,0,0,1,0,0,0,256.3059,180.5248,2.0667,-75.781,0,
112,1,3,1,123,1,46.3872,285.0305,346.8736,2,1,3,2,1,0,0,285.0305,306.5081,0.9583,21.4775,10,
112,1,3,1,124,0,105.9184,319.3083,75.1632,0,0,0,1,0,0,0,105.9184,147.4973,1.525,41.5789,0,
112,1,3,1,125,1,106.5588,195.2766,18.769,3,2,1,3,1,0,0,18.769,6.4999,1.1665,-12.269,20,
112,1,3,1,126,1,139.8817,17.9662,316.522,2,3,1,1,0,0,1,139.8817,185.8633,2.1834,45.9816,0,
112,1,3,1,127,1,108.4447,349.7301,229.3677,3,1,2,3,1,0,0,229.3677,343.9151,1.1083,114.5474,0,
112,1,3,1,128,1,319.9646,15.8124,75.5678,1,2,3,1,1,0,0,319.9646,341.1764,1.7251,21.2118,10,
112,1,3,1,129,0,317.5047,196.66,135.8694,0,0,0,1,0,0,0,317.5047,5.8724,1.6167,48.3677,0,
112,1,3,1,130,0,287.6892,169.3546,108.6142,0,0,0,1,0,0,0,287.6892,337.3923,1.6085,49.7031,0,
112,1,3,1,131,1,347.3686,289.756,46.2448,2,1,3,2,1,0,0,289.756,302.5883,1.3001,12.8323,20,
112,1,3,1,132,1,167.2609,19.246,46.9522,2,1,3,2,1,0,0,19.246,58.0103,1.9085,38.7643,0,
112,1,3,1,133,1,197.6056,138.8715,165.6013,1,2,3,1,1,0,0,197.6056,155.7716,1.3917,-41.834,0,
112,1,3,1,134,1,167.5071,256.385,287.6698,1,2,3,2,0,1,0,256.385,306.8539,1.5168,50.4689,0,
112,1,3,1,135,1,75.2679,196.8753,288.875,1,2,3,3,0,0,1,288.875,23.6444,1.2834,94.7694,0,
112,1,3,1,136,0,197.5604,348.6066,259.6442,0,0,0,1,0,0,0,197.5604,213.1721,1.9334,15.6117,20,
112,1,3,1,137,0,168.4379,109.9343,348.8497,0,0,0,3,0,0,0,348.8497,338.9572,1.3501,-9.8924,30,
112,1,3,1,138,1,198.6208,258.0684,348.9148,2,3,1,2,1,0,0,258.0684,62.3258,1.5251,164.2574,0,
112,1,3,1,139,1,345.3642,288.7561,229.1559,1,2,3,1,1,0,0,345.3642,10.1534,2.2085,24.7893,10,
112,1,3,1,140,1,229.1626,289.9769,348.2488,1,2,3,2,0,1,0,289.9769,313.4216,1.3,23.4447,10,
112,1,3,1,141,0,196.0322,256.693,137.8706,0,0,0,1,0,0,0,196.0322,172.0517,1.0334,-23.9804,10,
112,1,3,1,142,0,137.2949,199.3049,318.3042,0,0,0,2,0,0,0,199.3049,61.7174,2.6501,-137.5875,0,
112,1,3,1,143,0,319.5075,166.5917,77.9854,0,0,0,1,0,0,0,319.5075,6.6977,1.6834,47.1903,0,
112,1,3,1,144,1,198.7463,49.2093,255.8344,3,2,1,1,0,0,1,198.7463,181.3749,1.4584,-17.3714,20,
112,1,3,1,145,1,47.6562,169.7795,195.3334,1,2,3,1,1,0,0,47.6562,29.2855,1.5834,-18.3707,20,
112,1,3,1,146,0,285.7627,255.7778,345.4478,0,0,0,2,0,0,0,255.7778,302.3324,1.6668,46.5546,0,
112,1,3,1,147,1,346.1715,287.3235,18.0969,3,2,1,3,1,0,0,18.0969,34.5091,1.7419,16.4122,20,
112,1,3,1,148,1,286.6012,47.4647,76.1083,1,2,3,2,0,1,0,47.4647,295.3842,1.6084,-112.0805,0,
112,1,3,1,149,0,169.9519,135.1685,257.1213,0,0,0,1,0,0,0,169.9519,194.011,2.175,24.0591,10,
112,1,3,1,150,1,135.5186,76.8876,286.3143,2,3,1,2,1,0,0,76.8876,64.7198,1.6585,-12.1678,20,
112,1,3,1,151,1,136.9241,15.8132,228.9838,2,3,1,1,0,0,1,136.9241,139.4331,1.7084,2.509,40,
112,1,3,1,152,1,256.3422,16.2905,47.405,1,3,2,1,1,0,0,256.3422,211.9743,1.3417,-44.3679,0,
112,1,3,1,153,1,46.019,79.9667,135.4681,3,1,2,3,1,0,0,135.4681,117.7766,1.5917,-17.6915,20,
112,1,3,1,154,1,139.2935,49.6024,78.7542,2,3,1,2,1,0,0,49.6024,60.4348,2.1167,10.8323,30,
112,1,3,1,155,0,287.1087,317.0566,79.7957,0,0,0,2,0,0,0,317.0566,309.7224,2.0251,-7.3341,30,
112,1,3,1,156,0,108.3266,79.8213,348.3558,0,0,0,3,0,0,0,348.3558,330.9634,1.2168,-17.3924,20,
112,1,3,1,157,1,75.3655,287.9028,346.4351,2,1,3,2,1,0,0,287.9028,301.2213,1.8084,13.3184,20,
112,1,3,1,158,0,198.7184,106.9255,16.2575,0,0,0,3,0,0,0,16.2575,4.8198,1.0667,-11.4377,30,
112,1,3,1,159,1,19.4394,316.2826,169.834,3,1,2,2,0,0,1,316.2826,305.5874,2.1251,-10.6952,30,
112,1,3,1,160,1,198.7854,49.4316,347.3611,1,3,2,1,1,0,0,198.7854,195.4269,1.1249,-3.3585,30,
112,1,3,1,161,1,256.8834,287.5216,198.8175,3,2,1,3,1,0,0,198.8175,211.024,1.1083,12.2066,20,
112,1,3,1,162,1,15.4179,197.5633,289.1643,2,1,3,2,1,0,0,197.5633,186.6651,1.3917,-10.8982,30,
112,1,3,1,163,0,225.9814,285.6068,317.7185,0,0,0,3,0,0,0,317.7185,311.2079,1.0417,-6.5105,30,
112,1,3,1,164,1,226.822,15.8574,348.9768,2,1,3,2,1,0,0,15.8574,34.9815,1.3834,19.1241,20,
112,1,3,1,165,0,108.4765,49.8046,227.7316,0,0,0,2,0,0,0,49.8046,81.5044,1.1335,31.6998,0,
112,1,3,1,166,1,139.2915,349.5471,169.8083,2,1,3,2,1,0,0,349.5471,315.64,1.3001,-33.9071,0,
112,1,3,1,167,0,317.665,166.6339,78.011,0,0,0,3,0,0,0,78.011,45.7853,1.4585,-32.2257,0,
112,1,3,1,168,1,45.8568,286.6499,19.8324,3,1,2,1,0,1,0,45.8568,25.7563,1.5168,-20.1005,20,
112,1,3,1,169,1,106.7704,226.3312,346.4575,1,2,3,1,1,0,0,106.7704,131.057,1.7001,24.2866,10,
112,1,3,1,170,0,49.4181,287.1224,18.0363,0,0,0,1,0,0,0,49.4181,17.9176,2.0252,-31.5004,0,
112,1,3,1,171,1,17.7364,197.7674,108.1529,2,3,1,2,1,0,0,197.7674,221.7761,1.7167,24.0087,10,
112,1,3,1,172,1,345.4081,166.3724,229.3376,1,3,2,1,1,0,0,345.4081,303.8401,1.7084,-41.5681,0,
112,1,3,1,173,0,198.8857,346.9197,288.5578,0,0,0,2,0,0,0,346.9197,312.469,1.2001,-34.4508,0,
112,1,3,1,174,1,285.827,225.908,348.4572,3,2,1,3,1,0,0,348.4572,341.5667,1.5668,-6.8904,30,
112,1,3,1,175,1,165.0106,319.7555,18.8315,1,3,2,1,1,0,0,165.0106,167.7839,1.2584,2.7733,40,
112,1,3,1,176,1,45.903,107.8665,75.8178,2,1,3,3,0,0,1,75.8178,71.1105,1.2251,-4.7073,30,
112,1,3,1,177,1,46.1465,285.9111,225.8318,2,3,1,2,1,0,0,285.9111,298.1284,1.5084,12.2173,20,
112,1,3,1,178,0,108.3036,169.7062,19.8785,0,0,0,2,0,0,0,169.7062,133.1807,1.4584,-36.5254,0,
112,1,3,1,179,0,259.2268,109.3944,138.7309,0,0,0,2,0,0,0,109.3944,139.3263,1.1501,29.932,10,
112,1,3,1,180,1,17.2394,78.5482,169.7217,2,1,3,3,0,0,1,169.7217,28.2947,1.4,-141.4269,0,
112,1,4,1,181,0,228.2734,195.1307,18.9289,0,0,0,3,0,0,0,18.9289,100.6397,1.1166,81.7108,0,
112,1,4,1,182,0,109.9695,258.0224,229.7245,0,0,0,2,0,0,0,258.0224,291.4066,1.575,33.3842,0,
112,1,4,1,183,1,285.552,166.0832,199.0551,1,3,2,3,0,1,0,199.0551,71.6051,1.6668,-127.45,0,
112,1,4,1,184,1,108.221,255.3397,226.0396,1,3,2,2,0,0,1,255.3397,126.9999,1.2917,-128.3398,0,
112,1,4,1,185,1,319.6343,15.0415,79.1231,3,2,1,3,1,0,0,79.1231,63.8856,1.1834,-15.2376,20,
112,1,4,1,186,0,289.6135,166.6016,349.2877,0,0,0,1,0,0,0,289.6135,339.0671,2.1168,49.4535,0,
112,1,4,1,187,0,135.0642,315.9331,77.4262,0,0,0,2,0,0,0,315.9331,286.2135,1.8834,-29.7196,10,
112,1,4,1,188,1,137.8393,227.1325,45.3812,2,1,3,2,1,0,0,227.1325,55.0094,4.2502,-172.1231,0,
112,1,4,1,189,0,169.7982,15.4454,288.9887,0,0,0,1,0,0,0,169.7982,187.4319,2.0668,17.6336,20,
112,1,4,1,190,0,137.5494,76.9126,259.5274,0,0,0,3,0,0,0,259.5274,305.2237,1.4334,45.6963,0,
112,1,4,1,191,0,345.9222,75.2283,289.4252,0,0,0,3,0,0,0,289.4252,301.3021,2.2334,11.8769,30,
112,1,4,1,192,1,48.1135,105.3177,286.8675,2,3,1,2,1,0,0,105.3177,115.7956,1.0917,10.4779,30,
112,1,4,1,193,1,76.7084,347.7434,17.3027,1,2,3,1,1,0,0,76.7084,41.3991,1.6668,-35.3092,0,
112,1,4,1,194,1,257.1951,105.7453,195.1414,2,1,3,2,1,0,0,105.7453,130.3212,0.88335,24.5759,10,
112,1,4,1,195,0,317.404,105.3326,79.4889,0,0,0,2,0,0,0,105.3326,126.5472,1.1667,21.2146,10,
112,1,4,1,196,0,76.7007,169.5946,107.2813,0,0,0,3,0,0,0,107.2813,304.0576,1.0585,-163.2237,0,
112,1,4,1,197,0,347.9954,168.0078,108.2471,0,0,0,3,0,0,0,108.2471,114.4466,0.95831,6.1995,30,
112,1,4,1,198,0,136.8788,169.3173,286.4599,0,0,0,1,0,0,0,136.8788,160.6499,1.2584,23.7711,10,
112,1,4,1,199,1,196.4215,17.1766,229.5188,1,3,2,1,1,0,0,196.4215,205.4115,1.4834,8.99,30,
112,1,4,1,200,1,287.6707,136.834,196.8197,2,1,3,1,0,1,0,287.6707,201.1279,2.0251,-86.5428,0,
112,1,4,1,201,1,229.9196,49.8989,16.2508,2,3,1,2,1,0,0,49.8989,47.2048,2.0335,-2.6942,40,
112,1,4,1,202,0,195.0178,169.0762,228.1921,0,0,0,2,0,0,0,169.0762,148.0929,1.7835,-20.9833,20,
112,1,4,1,203,0,257.3316,289.7577,49.825,0,0,0,2,0,0,0,289.7577,303.5751,1.225,13.8174,20,
112,1,4,1,204,0,259.0554,288.5523,139.8512,0,0,0,3,0,0,0,139.8512,134.7317,2.7251,-5.1195,30,
112,1,4,1,205,1,286.2257,165.3206,76.3157,1,2,3,2,0,1,0,165.3206,133.9582,1.0167,-31.3624,0,
112,1,4,1,206,1,315.0382,228.0546,17.0404,3,2,1,1,0,0,1,315.0382,191.8374,2.0834,-123.2008,0,
112,1,4,1,207,1,108.5521,168.4433,16.6047,1,2,3,1,1,0,0,108.5521,139.1375,1.1335,30.5854,0,
112,1,4,1,208,1,75.8955,138.1723,319.8148,3,2,1,1,0,0,1,75.8955,154.5509,2.2168,78.6553,0,
112,1,4,1,209,1,169.5658,108.4126,319.7337,1,2,3,1,1,0,0,169.5658,172.6889,0.9167,3.1231,30,
112,1,4,1,210,0,315.4142,19.752,75.0819,0,0,0,3,0,0,0,75.0819,213.7403,2.3752,138.6584,0,
112,1,4,1,211,1,317.3943,106.5406,48.7222,2,3,1,3,0,1,0,48.7222,48.7848,1.2583,0.062564,40,
112,1,4,1,212,1,286.3409,257.7512,45.9026,3,2,1,1,0,0,1,286.3409,182.2374,1.725,-104.1035,0,
112,1,4,1,213,1,77.0324,49.759,139.5599,1,3,2,1,1,0,0,77.0324,1.6586,3.6418,-75.3737,0,
112,1,4,1,214,0,318.0144,166.8875,138.3247,0,0,0,1,0,0,0,318.0144,320.988,1.2001,2.9736,40,
112,1,4,1,215,1,198.4041,109.616,45.7642,2,3,1,3,0,1,0,45.7642,54.8828,1.3251,9.1186,30,
112,1,4,1,216,1,45.5504,196.3961,258.8382,1,2,3,1,1,0,0,45.5504,30.5833,1.5585,-14.9671,20,
112,1,4,1,217,1,226.2324,48.3037,346.647,2,3,1,2,1,0,0,48.3037,48.5898,0.97503,0.28618,40,
112,1,4,1,218,0,49.0048,137.7749,107.0944,0,0,0,2,0,0,0,137.7749,57.1445,1.2334,-80.6304,0,
112,1,4,1,219,0,167.4934,18.693,255.0638,0,0,0,1,0,0,0,167.4934,206.2925,1.5334,38.7991,0,
112,1,4,1,220,0,288.6709,195.521,228.9629,0,0,0,2,0,0,0,195.521,138.8341,0.91672,-56.687,0,
112,1,4,1,221,0,165.2439,196.5692,108.2082,0,0,0,2,0,0,0,196.5692,228.2738,1.4085,31.7046,0,
112,1,4,1,222,0,48.3979,197.8389,288.2589,0,0,0,3,0,0,0,288.2589,88.3758,2.0084,160.117,0,
112,1,4,1,223,1,109.8933,45.5568,136.9804,1,3,2,1,1,0,0,109.8933,50.413,1.8085,-59.4803,0,
112,1,4,1,224,1,78.9946,289.6512,345.0236,1,3,2,1,1,0,0,78.9946,310.1097,1.575,-128.8849,0,
112,1,4,1,225,1,165.1751,197.0274,76.2483,3,1,2,3,1,0,0,76.2483,131.697,1.8335,55.4486,0,
112,1,4,1,226,0,138.6715,347.4974,169.7165,0,0,0,3,0,0,0,169.7165,330.6773,1.2917,160.9608,0,
112,1,4,1,227,1,167.6721,77.1758,345.7885,2,3,1,2,1,0,0,77.1758,60.023,1.1501,-17.1528,20,
112,1,4,1,228,0,79.4084,198.6705,227.0322,0,0,0,2,0,0,0,198.6705,167.215,1.5417,-31.4555,0,
112,1,4,1,229,1,256.2999,78.9343,137.5579,2,3,1,1,0,0,1,256.2999,188.642,1.3502,-67.6579,0,
112,1,4,1,230,1,258.2465,78.8143,167.8784,1,2,3,1,1,0,0,258.2465,217.4799,1.0251,-40.7666,0,
112,1,4,1,231,0,315.1631,197.1487,45.1863,0,0,0,3,0,0,0,45.1863,323.1264,1.1001,-82.06,0,
112,1,4,1,232,0,166.0708,105.0193,259.4029,0,0,0,2,0,0,0,105.0193,77.2007,1.2501,-27.8186,10,
112,1,4,1,233,0,285.4293,17.6559,49.4428,0,0,0,1,0,0,0,285.4293,321.3053,2.3001,35.8759,0,
112,1,4,1,234,1,137.0614,166.811,48.907,3,2,1,3,1,0,0,48.907,48.9236,1.2001,0.016634,40,
112,1,4,1,235,0,258.397,19.884,195.6273,0,0,0,3,0,0,0,195.6273,27.0218,1.2084,-168.6055,0,
112,1,4,1,236,0,167.6627,229.6285,109.4954,0,0,0,3,0,0,0,109.4954,150.2597,1.4501,40.7643,0,
112,1,4,1,237,1,289.3028,79.6955,258.401,1,3,2,3,0,1,0,258.401,137.6424,1.7416,-120.7585,0,
112,1,4,1,238,1,167.6572,228.169,345.0705,2,1,3,2,1,0,0,228.169,211.9701,1.6501,-16.1989,20,
112,1,4,1,239,1,78.7617,259.4745,169.2092,1,2,3,1,1,0,0,78.7617,208.6757,1.4752,129.9141,0,
112,1,4,1,240,1,138.6643,105.5838,18.7302,2,1,3,1,0,1,0,138.6643,194.5875,1.5416,55.9233,0,
112,1,5,1,241,1,167.0559,316.1824,255.9753,2,1,3,2,1,0,0,316.1824,309.5809,0.98344,-6.6016,30,
112,1,5,1,242,1,225.5146,49.9844,196.7948,1,2,3,1,1,0,0,225.5146,215.047,0.83352,-10.4676,30,
112,1,5,1,243,1,77.9323,198.8902,258.6385,2,1,3,2,1,0,0,198.8902,56.8653,1.525,-142.0249,0,
112,1,5,1,244,1,228.7567,317.6118,347.4522,1,2,3,2,0,1,0,317.6118,228.2119,1.5834,-89.3999,0,
112,1,5,1,245,1,16.2011,225.3515,286.5002,3,1,2,3,1,0,0,286.5002,328.9316,0.90006,42.4313,0,
112,1,5,1,246,0,166.4226,49.1528,229.0918,0,0,0,1,0,0,0,166.4226,202.1063,1.2084,35.6838,0,
112,1,5,1,247,1,48.2004,108.9378,136.35,3,2,1,3,1,0,0,136.35,303.5448,1.3167,167.1948,0,
112,1,5,1,248,1,135.4472,258.6564,229.5193,1,2,3,3,0,0,1,229.5193,144.7549,1.4918,-84.7644,0,
112,1,5,1,249,1,139.9175,46.2417,348.0318,3,1,2,2,0,0,1,46.2417,306.7413,1.6502,-99.5004,0,
112,1,5,1,250,1,287.9163,196.3027,345.4241,2,1,3,1,0,1,0,287.9163,319.6411,1.7085,31.7248,0,
112,1,5,1,251,0,199.6498,106.4098,345.8444,0,0,0,1,0,0,0,199.6498,233.4055,1.6168,33.7557,0,
112,1,5,1,252,0,169.1344,316.5048,346.9194,0,0,0,3,0,0,0,346.9194,347.2909,1.2084,0.37148,40,
112,1,5,1,253,0,195.6162,138.6794,225.7831,0,0,0,2,0,0,0,138.6794,202.4492,1.3833,63.7698,0,
112,1,5,1,254,1,105.6737,316.6189,199.7527,3,2,1,1,0,0,1,105.6737,129.5346,1.05,23.8609,10,
112,1,5,1,255,0,319.0859,286.8877,49.863,0,0,0,1,0,0,0,319.0859,324.7838,1.2667,5.6979,30,
112,1,5,1,256,1,169.9745,197.4529,47.5173,3,2,1,1,0,0,1,169.9745,177.1844,0.95836,7.2098,30,
112,1,5,1,257,1,108.6293,256.6972,346.3634,3,1,2,3,1,0,0,346.3634,325.6168,1.1751,-20.7466,20,
112,1,5,1,258,1,315.1454,285.681,18.4728,1,3,2,2,0,0,1,285.681,313.6061,1.3834,27.9251,10,
112,1,5,1,259,0,345.3735,195.9123,165.1584,0,0,0,2,0,0,0,195.9123,206.9276,1.5502,11.0154,30,
112,1,5,1,260,1,48.6624,345.8147,229.6054,1,3,2,3,0,1,0,229.6054,173.488,1.3416,-56.1174,0,
112,1,5,1,261,1,75.0066,49.9063,17.851,1,3,2,1,1,0,0,75.0066,30.4391,1.925,-44.5674,0,
112,1,5,1,262,1,108.7804,256.4412,78.0309,1,3,2,1,1,0,0,108.7804,57.2394,1.0418,-51.541,0,
112,1,5,1,263,0,136.1479,165.0346,318.8332,0,0,0,2,0,0,0,165.0346,152.1193,1.7501,-12.9153,20,
112,1,5,1,264,1,197.5948,19.1099,348.1851,3,1,2,2,0,0,1,19.1099,59.1632,1.2585,40.0534,0,
112,1,5,1,265,0,107.0495,196.8559,226.1343,0,0,0,1,0,0,0,107.0495,205.2959,1.7751,98.2464,0,
112,1,5,1,266,0,168.9651,139.0778,48.7606,0,0,0,3,0,0,0,48.7606,155.7482,1.025,106.9876,0,
112,1,5,1,267,0,317.7818,139.8454,168.4456,0,0,0,1,0,0,0,317.7818,342.5785,1.3834,24.7967,10,
112,1,5,1,268,0,345.0331,197.9865,288.2959,0,0,0,2,0,0,0,197.9865,318.6056,1.0667,120.6191,0,
112,1,5,1,269,1,168.9406,229.348,288.9377,2,3,1,2,1,0,0,229.348,55.9159,0.90014,-173.4321,0,
112,1,5,1,270,0,165.9414,106.621,288.5802,0,0,0,1,0,0,0,165.9414,201.8251,1.9252,35.8837,0,
112,1,5,1,271,1,168.5983,256.5138,47.2951,3,1,2,3,1,0,0,47.2951,228.2437,1.3667,-179.0514,0,
112,1,5,1,272,1,17.1214,319.5277,287.0866,3,1,2,3,1,0,0,287.0866,301.9775,0.96667,14.8909,20,
112,1,5,1,273,1,285.9294,16.4572,317.3083,2,3,1,2,1,0,0,16.4572,294.3622,1.225,-82.095,0,
112,1,5,1,274,1,135.8698,195.5877,105.8702,3,2,1,3,1,0,0,105.8702,313.2848,1.0334,-152.5854,0,
112,1,5,1,275,0,107.3868,259.4494,195.3254,0,0,0,1,0,0,0,107.3868,211.2767,1.0167,103.8899,0,
112,1,5,1,276,0,136.9238,347.8132,168.1692,0,0,0,3,0,0,0,168.1692,0.60543,1.1417,-167.5637,0,
112,1,5,1,277,0,227.7422,136.0392,108.9229,0,0,0,1,0,0,0,227.7422,189.0117,4.5336,-38.7305,0,
112,1,5,1,278,1,138.9978,348.9808,289.7704,3,1,2,3,1,0,0,289.7704,303.0138,0.9668,13.2434,20,
112,1,5,1,279,1,136.8617,167.0285,17.1941,1,3,2,1,1,0,0,136.8617,146.2698,1.0917,9.4082,30,
112,1,5,1,280,1,318.5183,259.5948,138.3004,1,3,2,1,1,0,0,318.5183,332.484,1.3667,13.9657,20,
112,1,5,1,281,0,225.1476,257.3617,288.3922,0,0,0,1,0,0,0,225.1476,240.9466,3.0085,15.7991,20,
112,1,5,1,282,1,19.5042,105.6908,48.9704,3,1,2,3,1,0,0,48.9704,56.9215,2.3668,7.9511,30,
112,1,5,1,283,1,45.9366,77.7282,136.2756,3,1,2,1,0,1,0,45.9366,56.4554,1.7334,10.5188,30,
112,1,5,1,284,1,169.4306,45.747,257.1734,3,1,2,3,1,0,0,257.1734,271.3865,6.2586,14.2131,20,
112,1,5,1,285,1,287.5569,16.0754,106.7305,1,3,2,3,0,1,0,106.7305,295.3375,1.275,-171.3931,0,
112,1,5,1,286,0,287.3987,75.9933,316.1951,0,0,0,3,0,0,0,316.1951,295.7249,2.1251,-20.4702,20,
112,1,5,1,287,1,259.6331,285.4745,76.8771,2,3,1,3,0,1,0,76.8771,111.7918,2.4167,34.9147,0,
112,1,5,1,288,0,197.3872,316.5277,47.5817,0,0,0,3,0,0,0,47.5817,39.9396,1.4335,-7.642,30,
112,1,5,1,289,0,319.7979,108.851,79.3751,0,0,0,1,0,0,0,319.7979,123.1748,2.2584,163.3769,0,
112,1,5,1,290,0,16.3184,229.58,348.0752,0,0,0,2,0,0,0,229.58,220.0622,1.4666,-9.5178,30,
112,1,5,1,291,1,347.7596,17.0191,198.7506,3,1,2,3,1,0,0,198.7506,189.6884,1.7084,-9.0621,30,
112,1,5,1,292,1,229.2868,75.9901,315.778,2,3,1,2,1,0,0,75.9901,69.6497,1.3834,-6.3404,30,
112,1,5,1,293,1,76.7418,17.4316,258.3976,1,3,2,1,1,0,0,76.7418,172.8973,1.3002,96.1554,0,
112,1,5,1,294,0,139.9652,345.4822,196.5657,0,0,0,2,0,0,0,345.4822,60.0484,0.97512,74.5662,0,
112,1,5,1,295,0,258.5304,135.1951,198.0815,0,0,0,3,0,0,0,198.0815,304.0372,1.2835,105.9557,0,
112,1,5,1,296,0,79.9196,45.2887,106.9827,0,0,0,1,0,0,0,79.9196,80.7565,1.0251,0.83692,40,
112,1,5,1,297,1,139.4131,317.1872,79.1748,1,2,3,1,1,0,0,139.4131,186.2335,1.5251,46.8204,0,
112,1,5,1,298,1,169.0204,227.8133,108.7544,2,1,3,3,0,0,1,108.7544,49.4909,1.3916,-59.2635,0,
112,1,5,1,299,0,15.6194,315.9312,168.2325,0,0,0,1,0,0,0,15.6194,27.957,1.6,12.3376,20,
112,1,5,1,300,1,108.8763,47.9592,16.8809,2,3,1,2,1,0,0,47.9592,58.8034,1.425,10.8442,30,
112,1,6,1,301,1,46.9234,135.2004,227.9147,2,3,1,2,1,0,0,135.2004,142.4394,1.0834,7.239,30,
112,1,6,1,302,1,195.7893,347.5433,258.0165,3,1,2,3,1,0,0,258.0165,205.7746,1.4918,-52.2419,0,
112,1,6,1,303,0,16.8971,197.9642,135.3425,0,0,0,2,0,0,0,197.9642,225.9854,1.5418,28.0212,10,
112,1,6,1,304,1,347.1749,287.7893,258.1939,3,2,1,3,1,0,0,258.1939,241.96,1.3501,-16.2339,20,
112,1,6,1,305,0,16.4771,196.8306,76.7452,0,0,0,3,0,0,0,76.7452,70.8275,1.8084,-5.9178,30,
112,1,6,1,306,1,317.1352,167.8886,349.4976,2,1,3,2,1,0,0,167.8886,185.1899,1.8583,17.3012,20,
112,1,6,1,307,0,349.4673,318.2654,15.2014,0,0,0,2,0,0,0,318.2654,326.3911,1.8251,8.1257,30,
112,1,6,1,308,1,348.6462,168.243,137.3733,3,2,1,3,1,0,0,137.3733,137.5542,1.9418,0.18089,40,
112,1,6,1,309,1,136.4477,45.0925,348.5075,1,3,2,1,1,0,0,136.4477,145.5201,1.5501,9.0724,30,
112,1,6,1,310,0,315.7111,256.8779,168.9678,0,0,0,2,0,0,0,256.8779,291.3491,2.2918,34.4712,0,
112,1,6,1,311,1,169.758,196.7334,286.4866,3,2,1,3,1,0,0,286.4866,323.5584,1.6584,37.0718,0,
112,1,6,1,312,0,259.5246,346.4085,138.0694,0,0,0,3,0,0,0,138.0694,131.2141,1.6834,-6.8553,30,
112,1,6,1,313,0,225.0449,48.5914,257.2471,0,0,0,2,0,0,0,48.5914,53.0578,2.1334,4.4664,30,
112,1,6,1,314,0,109.9422,346.2555,196.5774,0,0,0,1,0,0,0,109.9422,210.1515,1.5835,100.2093,0,
112,1,6,1,315,1,46.3042,227.4654,109.2792,2,3,1,2,1,0,0,227.4654,219.5645,1.0918,-7.9009,30,
112,1,6,1,316,0,257.3016,227.5784,76.36,0,0,0,3,0,0,0,76.36,303.8556,1.3417,-132.5043,0,
112,1,6,1,317,0,257.7944,16.1293,135.5226,0,0,0,2,0,0,0,16.1293,58.4981,1.1752,42.3689,0,
112,1,6,1,318,1,19.299,47.9853,288.2738,3,2,1,1,0,0,1,19.299,196.1895,2.4252,176.8904,0,
112,1,6,1,319,1,195.14,255.3342,79.6353,2,1,3,3,0,0,1,79.6353,61.1378,1.7335,-18.4975,20,
112,1,6,1,320,1,15.1824,255.3184,106.6144,2,1,3,2,1,0,0,255.3184,242.7779,2.1502,-12.5405,20,
112,1,6,1,321,1,107.9897,225.1151,19.4971,3,2,1,3,1,0,0,19.4971,24.7752,1.3583,5.2781,30,
112,1,6,1,322,1,197.2525,47.8892,285.3742,1,2,3,2,0,1,0,47.8892,58.0568,1.4584,10.1676,30,
112,1,6,1,323,1,17.2564,316.2498,139.7772,1,3,2,1,1,0,0,17.2564,164.9211,3.6585,147.6648,0,
112,1,6,1,324,0,17.2228,288.1376,347.6732,0,0,0,1,0,0,0,17.2228,203.1991,1.05,-174.0237,0,
112,1,6,1,325,1,317.5363,165.5686,257.4522,1,2,3,1,1,0,0,317.5363,219.874,1.4918,-97.6624,0,
112,1,6,1,326,0,47.5541,317.8229,199.9686,0,0,0,1,0,0,0,47.5541,334.6087,1.5667,-72.9455,0,
112,1,6,1,327,0,106.6799,75.7242,346.2244,0,0,0,3,0,0,0,346.2244,160.4925,1.6,174.2681,0,
112,1,6,1,328,1,169.2888,79.31,346.5665,3,2,1,3,1,0,0,346.5665,336.0023,1.1583,-10.5642,30,
112,1,6,1,329,1,319.3634,106.4291,198.2842,3,1,2,3,1,0,0,198.2842,331.6581,1.2751,133.3739,0,
112,1,6,1,330,0,349.5954,197.0535,78.6618,0,0,0,2,0,0,0,197.0535,234.824,1.9918,37.7705,0,
112,1,6,1,331,1,15.0076,347.81,287.7324,2,3,1,3,0,1,0,287.7324,292.171,1.3833,4.4386,30,
112,1,6,1,332,1,285.9061,227.1312,255.4908,3,2,1,3,1,0,0,255.4908,215.6878,1.6334,-39.8031,0,
112,1,6,1,333,0,345.6878,197.1204,228.8228,0,0,0,2,0,0,0,197.1204,154.6392,2.0668,-42.4812,0,
112,1,6,1,334,0,165.8893,259.9342,75.085,0,0,0,3,0,0,0,75.085,44.1188,1.4167,-30.9662,0,
112,1,6,1,335,1,18.1545,289.4599,318.367,2,1,3,2,1,0,0,289.4599,308.0095,1.5253,18.5496,20,
112,1,6,1,336,1,227.6908,319.5507,166.7535,2,3,1,2,1,0,0,319.5507,308.4977,1.4667,-11.053,30,
112,1,6,1,337,1,256.578,109.9701,229.9195,3,1,2,3,1,0,0,229.9195,228.0778,1.4417,-1.8417,40,
112,1,6,1,338,1,258.626,319.1718,285.0945,1,2,3,1,1,0,0,258.626,253.9639,1.4084,-4.6621,30,
112,1,6,1,339,1,289.6574,136.8901,18.0884,3,2,1,2,0,1,0,136.8901,126.673,1.1501,-10.2172,30,
112,1,6,1,340,1,107.9087,195.499,225.833,2,1,3,2,1,0,0,195.499,203.0166,1.7417,7.5176,30,
112,1,6,1,341,0,19.4256,46.0482,167.4018,0,0,0,3,0,0,0,167.4018,183.4691,1.7334,16.0674,20,
112,1,6,1,342,1,78.6958,106.2681,18.5963,3,1,2,2,0,0,1,106.2681,39.6325,2.6585,-66.6356,0,
112,1,6,1,343,0,258.1371,347.3141,105.6472,0,0,0,3,0,0,0,105.6472,137.6938,1.3584,32.0466,0,
112,1,6,1,344,0,229.993,137.5676,346.9392,0,0,0,3,0,0,0,346.9392,28.5015,1.2084,41.5623,0,
112,1,6,1,345,1,199.8122,16.5687,48.9854,3,2,1,2,0,1,0,16.5687,33.4236,1.7585,16.8549,20,
112,1,6,1,346,1,49.5963,169.9447,79.663,3,1,2,3,1,0,0,79.663,57.0191,1.275,-22.644,10,
112,1,6,1,347,1,195.941,315.5034,346.4328,3,2,1,3,1,0,0,346.4328,336.0474,1.0667,-10.3854,30,
112,1,6,1,348,0,106.7758,228.1557,19.3227,0,0,0,2,0,0,0,228.1557,311.8595,1.3418,83.7037,0,
112,1,6,1,349,1,16.1481,136.7947,46.8158,3,1,2,3,1,0,0,46.8158,72.7702,1.2,25.9544,10,
112,1,6,1,350,0,346.4404,166.8831,225.7325,0,0,0,1,0,0,0,346.4404,355.1472,1.7501,8.7067,30,
112,1,6,1,351,1,255.7971,226.3939,18.2247,3,1,2,3,1,0,0,18.2247,25.3768,1.0834,7.1521,30,
112,1,6,1,352,0,75.5483,347.8292,256.3717,0,0,0,3,0,0,0,256.3717,52.2989,1.3251,155.9272,0,
112,1,6,1,353,1,288.1388,77.2337,19.0555,1,2,3,2,0,1,0,77.2337,235.1925,1.5168,157.9588,0,
112,1,6,1,354,1,196.9487,15.7521,166.6685,2,1,3,3,0,0,1,166.6685,59.9985,1.2001,-106.67,0,
112,1,6,1,355,1,106.9478,257.4507,79.4345,1,3,2,1,1,0,0,106.9478,130.9133,0.8001,23.9654,10,
112,1,6,1,356,0,319.31,345.6282,258.2279,0,0,0,1,0,0,0,319.31,308.9373,1.8334,-10.3727,30,
112,1,6,1,357,1,138.9567,288.2831,107.7184,1,3,2,3,0,1,0,107.7184,101.6366,1.5418,-6.0818,30,
112,1,6,1,358,1,315.156,289.1379,16.3213,2,3,1,3,0,1,0,16.3213,48.3259,1.9084,32.0046,0,
112,1,6,1,359,1,258.0154,135.9201,225.4373,1,3,2,2,0,0,1,135.9201,62.4728,2.0502,-73.4473,0,
112,1,6,1,360,1,139.5235,198.8365,47.8133,3,1,2,3,1,0,0,47.8133,53.3371,1.2917,5.5238,30,
112,1,7,2,361,0,137.7436,195.0777,75.4734,0,0,0,2,0,0,0,195.0777,215.2451,1.6834,20.1674,20,
112,1,7,2,362,1,256.7246,198.4634,348.583,2,3,1,2,1,0,0,198.4634,216.7552,1.475,18.2918,20,
112,1,7,2,363,1,135.1638,79.2181,258.8515,3,2,1,2,0,1,0,79.2181,NaN,100000,999,0,
112,1,7,2,364,1,318.2542,229.9111,195.9692,2,1,3,2,1,0,0,229.9111,234.8392,1.4919,4.9282,30,
112,1,7,2,365,1,108.4551,288.2361,228.1172,1,2,3,1,1,0,0,108.4551,135.5088,1.0418,27.0537,10,
112,1,7,2,366,1,346.1287,288.3308,49.3567,3,1,2,3,1,0,0,49.3567,42.2073,1.4,-7.1494,30,
112,1,7,2,367,0,228.7525,46.6696,168.1642,0,0,0,2,0,0,0,46.6696,47.0179,2.2334,0.34831,40,
112,1,7,2,368,1,226.3755,139.1398,258.9639,1,2,3,1,1,0,0,226.3755,225.2216,1.3917,-1.1539,40,
112,1,7,2,369,0,79.0965,319.6324,17.5706,0,0,0,1,0,0,0,79.0965,309.3099,1.3751,-129.7866,0,
112,1,7,2,370,0,319.6235,15.2778,76.9202,0,0,0,2,0,0,0,15.2778,31.1612,1.075,15.8835,20,
112,1,7,2,371,1,319.6585,285.5445,48.2585,2,3,1,2,1,0,0,285.5445,313.779,1.4334,28.2345,10,
112,1,7,2,372,1,106.2626,258.2717,15.3005,2,1,3,2,1,0,0,258.2717,215.8677,2.6918,-42.404,0,
112,1,7,2,373,1,49.0672,258.9382,345.6216,3,2,1,3,1,0,0,345.6216,347.8046,1.5085,2.183,40,
112,1,7,2,374,1,166.1154,197.5488,18.9387,2,3,1,2,1,0,0,197.5488,205.6711,1.0334,8.1223,30,
112,1,7,2,375,1,135.6449,196.0742,226.4641,2,1,3,2,1,0,0,196.0742,160.9475,1.4085,-35.1266,0,
112,1,7,2,376,0,258.7972,46.9971,227.8371,0,0,0,3,0,0,0,227.8371,212.2413,1.2833,-15.5958,20,
112,1,7,2,377,1,19.3937,136.9647,106.2132,2,3,1,1,0,0,1,19.3937,22.8455,1.3667,3.4518,30,
112,1,7,2,378,1,198.1299,16.6345,346.5555,1,3,2,1,1,0,0,198.1299,202.3684,1.6917,4.2385,30,
112,1,7,2,379,0,255.9533,317.2465,78.8433,0,0,0,2,0,0,0,317.2465,313.8168,2.3334,-3.4297,30,
112,1,7,2,380,1,106.7368,288.8994,198.5417,2,1,3,2,1,0,0,288.8994,305.9202,1.0917,17.0208,20,
112,1,7,2,381,0,226.6913,289.8702,169.7739,0,0,0,3,0,0,0,169.7739,164.9518,1.4668,-4.8221,30,
112,1,7,2,382,1,75.0635,45.6611,226.9403,2,3,1,3,0,1,0,226.9403,NaN,100000,999,0,
112,1,7,2,383,0,195.7207,48.1759,349.0121,0,0,0,1,0,0,0,195.7207,190.1644,1.7001,-5.5563,30,
112,1,7,2,384,1,135.4763,286.2294,199.6733,3,1,2,1,0,1,0,135.4763,NaN,100000,999,0,
112,1,7,2,385,1,107.2227,346.6329,286.4365,3,2,1,1,0,0,1,107.2227,159.2816,2.1417,52.0589,0,
112,1,7,2,386,0,167.3073,257.9357,47.388,0,0,0,1,0,0,0,167.3073,210.4991,1.325,43.1918,0,
112,1,7,2,387,1,105.1816,45.943,347.8877,1,3,2,1,1,0,0,105.1816,128.8454,1.0334,23.6637,10,
112,1,7,2,388,0,197.7527,139.9306,168.4489,0,0,0,2,0,0,0,139.9306,54.6833,1.025,-85.2472,0,
112,1,7,2,389,0,106.463,49.1621,137.8526,0,0,0,3,0,0,0,137.8526,121.7838,1.2001,-16.0688,20,
112,1,7,2,390,1,18.0356,289.7875,76.6533,2,1,3,2,1,0,0,289.7875,296.9441,1.25,7.1566,30,
112,1,7,2,391,1,45.3576,315.0784,289.8684,3,2,1,3,1,0,0,289.8684,312.3552,1.0918,22.4868,10,
112,1,7,2,392,1,78.5901,105.9445,317.1697,3,1,2,2,0,0,1,105.9445,212.5636,1.9334,106.6191,0,
112,1,7,2,393,0,319.7139,18.3713,226.9283,0,0,0,2,0,0,0,18.3713,289.8952,1.1752,-88.4761,0,
112,1,7,2,394,1,196.9913,225.6865,319.7638,2,3,1,1,0,0,1,196.9913,212.2515,1.9501,15.2601,20,
112,1,7,2,395,1,75.4069,138.9374,255.872,1,2,3,3,0,0,1,255.872,100.303,1.4583,-155.569,0,
112,1,7,2,396,1,347.3247,229.1204,79.3594,2,3,1,3,0,1,0,79.3594,NaN,100000,999,0,
112,1,7,2,397,1,199.4692,169.205,48.4164,1,2,3,1,1,0,0,199.4692,203.907,0.90833,4.4378,30,
112,1,7,2,398,1,106.0224,15.3143,48.1119,3,2,1,3,1,0,0,48.1119,17.8053,1.3417,-30.3067,0,
112,1,7,2,399,0,347.7221,289.2307,45.2035,0,0,0,2,0,0,0,289.2307,305.1924,1.5668,15.9617,20,
112,1,7,2,400,0,288.0459,259.8347,198.8666,0,0,0,3,0,0,0,198.8666,206.8546,1.6668,7.9879,30,
112,1,7,2,401,1,138.5923,169.9766,75.4185,3,1,2,3,1,0,0,75.4185,47.8754,1.375,-27.5431,10,
112,1,7,2,402,0,138.4918,47.2984,315.7883,0,0,0,2,0,0,0,47.2984,58.6735,1.7167,11.3751,30,
112,1,7,2,403,1,318.6274,135.6952,168.1628,1,3,2,1,1,0,0,318.6274,306.7258,1.325,-11.9017,30,
112,1,7,2,404,1,198.2711,316.0916,345.5957,1,3,2,1,1,0,0,198.2711,209.4057,1.175,11.1346,30,
112,1,7,2,405,0,19.5455,197.2517,168.7432,0,0,0,2,0,0,0,197.2517,196.7214,2.2501,-0.53026,40,
112,1,7,2,406,1,196.9978,48.2766,317.8342,2,3,1,3,0,1,0,317.8342,NaN,100000,999,0,
112,1,7,2,407,1,18.4428,258.0195,106.9348,2,3,1,1,0,0,1,18.4428,344.6963,1.3584,-33.7465,0,
112,1,7,2,408,0,18.089,137.9711,318.3294,0,0,0,3,0,0,0,318.3294,69.3572,1.0417,111.0278,0,
112,1,7,2,409,0,285.4329,319.6342,15.7424,0,0,0,3,0,0,0,15.7424,26.4258,1.3251,10.6834,30,
112,1,7,2,410,1,167.2618,137.6668,287.6333,3,2,1,3,1,0,0,287.6333,310.6649,2.4334,23.0316,10,
112,1,7,2,411,1,257.6176,76.6841,136.6619,2,1,3,1,0,1,0,257.6176,NaN,100000,999,0,
112,1,7,2,412,1,318.6127,255.6712,169.2655,2,1,3,2,1,0,0,255.6712,226.4843,1.3917,-29.1869,10,
112,1,7,2,413,0,195.6399,167.3218,78.713,0,0,0,3,0,0,0,78.713,205.235,1.3833,126.522,0,
112,1,7,2,414,0,255.0215,348.2625,136.8484,0,0,0,3,0,0,0,136.8484,80.6056,1.3334,-56.2428,0,
112,1,7,2,415,1,169.2599,195.5886,108.2863,2,1,3,1,0,1,0,169.2599,NaN,100000,999,0,
112,1,7,2,416,0,108.0519,256.2399,137.5898,0,0,0,3,0,0,0,137.5898,143.0052,1.6667,5.4154,30,
112,1,7,2,417,1,315.776,79.9704,137.2512,2,1,3,3,0,0,1,137.2512,134.473,1.4918,-2.7782,40,
112,1,7,2,418,0,109.5576,45.6649,285.2108,0,0,0,1,0,0,0,109.5576,44.8417,1.1667,-64.7159,0,
112,1,7,2,419,1,285.9982,227.6508,348.1368,1,2,3,1,1,0,0,285.9982,310.733,0.91669,24.7348,10,
112,1,7,2,420,1,285.1161,195.8806,349.3046,1,2,3,3,0,0,1,349.3046,319.0992,1.4835,-30.2054,0,
112,1,8,2,421,0,139.1592,226.9724,75.4832,0,0,0,1,0,0,0,139.1592,218.204,1.1333,79.0448,0,
112,1,8,2,422,0,258.0006,19.9983,285.6459,0,0,0,3,0,0,0,285.6459,301.3739,1.0417,15.728,20,
112,1,8,2,423,0,347.863,79.9688,136.8148,0,0,0,2,0,0,0,79.9688,51.928,0.95002,-28.0408,10,
112,1,8,2,424,0,138.8927,289.0539,347.4898,0,0,0,1,0,0,0,138.8927,143.0085,1.9169,4.1157,30,
112,1,8,2,425,1,139.122,45.8653,229.3182,2,3,1,2,1,0,0,45.8653,59.6993,0.8334,13.834,20,
112,1,8,2,426,1,138.0311,78.9619,49.1808,3,1,2,2,0,0,1,78.9619,63.9746,1.1917,-14.9873,20,
112,1,8,2,427,0,46.1867,195.6983,256.1037,0,0,0,1,0,0,0,46.1867,208.8562,1.0584,162.6695,0,
112,1,8,2,428,1,346.4768,289.5354,227.4644,2,1,3,2,1,0,0,289.5354,304.3956,1.7252,14.8602,20,
112,1,8,2,429,1,47.187,79.2999,15.0445,2,1,3,2,1,0,0,79.2999,58.1414,0.82505,-21.1585,10,
112,1,8,2,430,1,79.2645,348.4328,109.7906,2,1,3,2,1,0,0,348.4328,333.2636,0.82516,-15.1692,20,
112,1,8,2,431,1,166.9384,345.2837,198.4479,1,3,2,1,1,0,0,166.9384,191.737,1.0084,24.7986,10,
112,1,8,2,432,1,46.1005,196.179,169.0506,1,2,3,2,0,1,0,196.179,NaN,100000,999,0,
112,1,8,2,433,0,285.1488,259.3335,319.4721,0,0,0,1,0,0,0,285.1488,264.561,1.5168,-20.5878,20,
112,1,8,2,434,1,315.0558,256.1726,168.5349,1,3,2,1,1,0,0,315.0558,305.5698,1.6417,-9.4861,30,
112,1,8,2,435,0,138.3282,106.1507,49.0244,0,0,0,3,0,0,0,49.0244,36.6353,1.1668,-12.3892,20,
112,1,8,2,436,0,167.1549,138.8245,349.9823,0,0,0,3,0,0,0,349.9823,332.7074,0.95003,-17.2749,20,
112,1,8,2,437,1,107.9765,77.5306,228.882,1,2,3,2,0,1,0,77.5306,NaN,100000,999,0,
112,1,8,2,438,1,165.7078,228.0405,49.6531,2,1,3,1,0,1,0,165.7078,NaN,100000,999,0,
112,1,8,2,439,1,348.1345,49.685,316.5997,3,1,2,3,1,0,0,316.5997,306.0383,1.1,-10.5614,30,
112,1,8,2,440,1,75.7592,348.6651,45.1985,1,3,2,2,0,0,1,348.6651,53.1137,1.1168,64.4487,0,
112,1,8,2,441,0,166.6833,319.4168,46.6683,0,0,0,1,0,0,0,166.6833,174.9747,1.4501,8.2914,30,
112,1,8,2,442,0,78.6986,197.224,109.252,0,0,0,2,0,0,0,197.224,220.5489,1.6334,23.3249,10,
112,1,8,2,443,1,227.4811,166.4383,105.9151,2,3,1,2,1,0,0,166.4383,161.9377,1.1584,-4.5006,30,
112,1,8,2,444,0,226.7599,195.5008,288.965,0,0,0,3,0,0,0,288.965,112.7227,1.25,-176.2423,0,
112,1,8,2,445,1,228.4323,319.7786,106.5395,3,1,2,3,1,0,0,106.5395,114.7911,2.3,8.2516,30,
112,1,8,2,446,1,79.7326,317.4622,348.7411,2,1,3,2,1,0,0,317.4622,233.2776,2.3251,-84.1846,0,
112,1,8,2,447,0,45.9115,197.797,18.1324,0,0,0,2,0,0,0,197.797,207.2236,1.3335,9.4266,30,
112,1,8,2,448,1,18.6621,168.1551,287.341,1,3,2,3,0,1,0,287.341,NaN,100000,999,0,
112,1,8,2,449,1,136.0884,285.0426,346.5031,3,1,2,3,1,0,0,346.5031,312.2485,1.0751,-34.2546,0,
112,1,8,2,450,1,315.1533,349.0435,225.2357,3,1,2,1,0,1,0,315.1533,NaN,100000,999,0,
112,1,8,2,451,1,138.6936,315.0693,168.3956,3,1,2,3,1,0,0,168.3956,137.477,1.7917,-30.9186,0,
112,1,8,2,452,1,46.0342,105.1868,78.3168,1,3,2,1,1,0,0,46.0342,21.2148,1.1084,-24.8194,10,
112,1,8,2,453,1,165.0947,45.9217,15.1337,3,1,2,3,1,0,0,15.1337,17.1227,1.35,1.989,40,
112,1,8,2,454,1,348.5217,318.8731,289.1133,2,1,3,1,0,1,0,348.5217,NaN,100000,999,0,
112,1,8,2,455,1,139.6704,47.9709,317.9655,1,2,3,1,1,0,0,139.6704,144.45,1.6668,4.7796,30,
112,1,8,2,456,1,286.0016,45.0729,168.8158,1,3,2,3,0,1,0,168.8158,NaN,100000,999,0,
112,1,8,2,457,0,195.2941,256.1198,15.8399,0,0,0,1,0,0,0,195.2941,206.9577,1.7335,11.6636,30,
112,1,8,2,458,1,138.5184,169.1855,258.6365,3,2,1,1,0,0,1,138.5184,209.0638,1.1168,70.5455,0,
112,1,8,2,459,0,19.902,108.5641,259.1282,0,0,0,1,0,0,0,19.902,36.4224,1.8168,16.5204,20,
112,1,8,2,460,1,108.5872,226.0126,318.2188,3,1,2,3,1,0,0,318.2188,304.3301,1.1168,-13.8887,20,
112,1,8,2,461,0,19.6597,105.4666,288.6939,0,0,0,2,0,0,0,105.4666,125.4142,1.4084,19.9476,20,
112,1,8,2,462,1,109.9663,18.7877,196.3753,1,2,3,2,0,1,0,18.7877,NaN,100000,999,0,
112,1,8,2,463,0,139.1878,168.7421,197.9193,0,0,0,3,0,0,0,197.9193,170.4662,1.1668,-27.4531,10,
112,1,8,2,464,0,136.7104,259.36,16.3401,0,0,0,1,0,0,0,136.7104,208.6879,1.2084,71.9775,0,
112,1,8,2,465,1,136.4382,79.6219,316.4924,2,1,3,2,1,0,0,79.6219,55.469,1.3417,-24.1528,10,
112,1,8,2,466,1,196.6333,136.0981,167.5911,2,1,3,3,0,0,1,167.5911,90.5589,1.3834,-77.0322,0,
112,1,8,2,467,1,226.3809,318.4812,259.4068,2,1,3,2,1,0,0,318.4812,314.0646,1.3917,-4.4166,30,
112,1,8,2,468,1,18.9916,169.3163,138.9898,1,3,2,1,1,0,0,18.9916,17.6388,1.4502,-1.3528,40,
112,1,8,2,469,1,15.3526,75.3001,108.3079,3,1,2,3,1,0,0,108.3079,114.487,1.7917,6.1792,30,
112,1,8,2,470,0,46.2786,346.8916,169.9687,0,0,0,1,0,0,0,46.2786,333.9431,2.1584,-72.3355,0,
112,1,8,2,471,1,345.2622,106.6171,78.9984,3,2,1,1,0,0,1,345.2622,336.3622,1.9084,-8.9,30,
112,1,8,2,472,0,348.2674,166.2214,78.7896,0,0,0,3,0,0,0,78.7896,62.9266,0.85843,-15.863,20,
112,1,8,2,473,1,106.559,257.9588,76.8881,1,3,2,1,1,0,0,106.559,121.8714,2.1585,15.3124,20,
112,1,8,2,474,0,317.6116,229.0412,257.2379,0,0,0,3,0,0,0,257.2379,61.9536,1.0333,164.7157,0,
112,1,8,2,475,0,287.5106,197.8513,19.2574,0,0,0,1,0,0,0,287.5106,250.0634,1.5334,-37.4472,0,
112,1,8,2,476,1,227.7234,199.2796,318.2134,3,1,2,3,1,0,0,318.2134,300.3679,1.9417,-17.8455,20,
112,1,8,2,477,1,76.0947,286.1864,255.0432,2,3,1,2,1,0,0,286.1864,303.7403,0.89172,17.5539,20,
112,1,8,2,478,0,317.4562,198.8708,225.7391,0,0,0,3,0,0,0,225.7391,302.4989,1.2418,76.7598,0,
112,1,8,2,479,0,46.7157,195.3171,168.0624,0,0,0,1,0,0,0,46.7157,207.1449,1.6918,160.4292,0,
112,1,8,2,480,1,285.5423,79.2688,319.5543,2,1,3,2,1,0,0,79.2688,47.0936,0.83352,-32.1752,0,
