Subject,Session,Block,Condition,Trial,whetherCued,leftStim,rightStim,midStim,remCueLoc,fogCueLoc,neutralCueLoc,probeCueLoc,probeRem,probeForget,probeNeutral,Target,Estimate,RT,Error,Points
122,1,1,2,1,0,136.1214,256.3453,18.3652,0,0,0,3,0,0,0,18.3652,44.4778,3.7636,26.1126,10,
122,1,1,2,2,1,289.4795,225.4954,105.2208,2,3,1,2,1,0,0,225.4954,248.2582,1.8748,22.7627,10,
122,1,1,2,3,1,347.5064,287.1586,109.9878,1,3,2,1,1,0,0,347.5064,165.9864,1.0633,178.48,0,
122,1,1,2,4,0,348.6529,108.2324,289.1658,0,0,0,2,0,0,0,108.2324,115.7061,2.1108,7.4738,30,
122,1,1,2,5,0,107.4617,228.4737,289.8637,0,0,0,3,0,0,0,289.8637,259.26,2.9506,-30.6037,0,
122,1,1,2,6,1,138.3022,255.2378,226.7439,1,3,2,2,0,0,1,255.2378,218.0611,2.6802,-37.1766,0,
122,1,1,2,7,1,197.5189,257.448,49.3852,1,3,2,1,1,0,0,197.5189,205.4484,1.1944,7.9295,30,
122,1,1,2,8,1,105.0963,165.4194,19.874,3,1,2,3,1,0,0,19.874,42.5005,1.3403,22.6265,10,
122,1,1,2,9,1,349.6502,286.9951,105.237,2,3,1,2,1,0,0,286.9951,294.3728,1.3541,7.3777,30,
122,1,1,2,10,1,259.389,197.9122,285.3534,3,2,1,3,1,0,0,285.3534,50.3268,0.84706,124.9733,0,
122,1,1,2,11,1,317.5194,78.234,226.5387,2,1,3,2,1,0,0,78.234,71.3393,0.88183,-6.8947,30,
122,1,1,2,12,0,226.4331,199.0041,19.4806,0,0,0,2,0,0,0,199.0041,157.9166,1.486,-41.0875,0,
122,1,1,2,13,1,199.1477,319.2454,226.8627,2,3,1,2,1,0,0,319.2454,319.1602,1.2707,-0.085245,40,
122,1,1,2,14,1,198.7837,137.0852,229.8589,3,2,1,1,0,0,1,198.7837,220.7479,1.5554,21.9641,10,
122,1,1,2,15,1,317.252,136.0284,79.4983,2,3,1,2,1,0,0,136.0284,131.9111,1.1041,-4.1173,30,
122,1,1,2,16,1,166.9501,227.4895,288.474,3,1,2,3,1,0,0,288.474,288.5145,0.96516,0.040514,40,
122,1,1,2,17,0,255.5852,109.0734,346.6243,0,0,0,3,0,0,0,346.6243,357.8002,1.9234,11.1759,30,
122,1,1,2,18,0,19.1594,45.6717,75.3023,0,0,0,2,0,0,0,45.6717,39.4763,1.3262,-6.1954,30,
122,1,1,2,19,1,139.9843,17.7677,197.5773,1,2,3,1,1,0,0,139.9843,145.3182,0.98617,5.334,30,
122,1,1,2,20,1,169.6556,105.9539,16.2929,3,2,1,1,0,0,1,169.6556,146.1124,1.7915,-23.5432,10,
122,1,1,2,21,1,198.6008,256.7345,227.585,1,3,2,1,1,0,0,198.6008,193.59,0.73596,-5.0108,30,
122,1,1,2,22,1,47.1514,228.4688,289.7261,3,2,1,3,1,0,0,289.7261,287.757,0.88178,-1.9691,40,
122,1,1,2,23,1,288.3452,197.5011,346.09,3,2,1,3,1,0,0,346.09,327.0448,1.0624,-19.0452,20,
122,1,1,2,24,1,229.3193,135.4885,169.5403,2,3,1,2,1,0,0,135.4885,130.5296,0.90298,-4.9589,30,
122,1,1,2,25,0,137.5392,347.928,18.8144,0,0,0,3,0,0,0,18.8144,12.4349,1.7915,-6.3796,30,
122,1,1,2,26,1,17.7694,108.4003,196.8359,3,1,2,3,1,0,0,196.8359,156.6429,1.5972,-40.1931,0,
122,1,1,2,27,0,135.7013,16.3007,195.4341,0,0,0,1,0,0,0,135.7013,151.9573,1.6109,16.256,20,
122,1,1,2,28,0,346.1034,285.0065,135.9459,0,0,0,1,0,0,0,346.1034,160.6171,1.0694,174.5137,0,
122,1,1,2,29,1,105.3418,17.1816,75.8693,3,2,1,3,1,0,0,75.8693,75.2295,1.6248,-0.63979,40,
122,1,1,2,30,1,166.1401,16.8543,319.4546,1,3,2,1,1,0,0,166.1401,152.2007,0.84732,-13.9395,20,
122,1,1,2,31,1,347.6621,78.5825,225.8965,3,2,1,3,1,0,0,225.8965,234.9049,0.95141,9.0084,30,
122,1,1,2,32,1,169.6783,319.0936,48.6413,2,1,3,1,0,1,0,169.6783,NaN,100000,999,0,
122,1,1,2,33,1,108.812,17.8803,78.7383,3,2,1,3,1,0,0,78.7383,71.282,1.8194,-7.4563,30,
122,1,1,2,34,0,347.6614,136.397,49.7312,0,0,0,3,0,0,0,49.7312,47.1885,1.7499,-2.5427,40,
122,1,1,2,35,0,78.6346,196.8692,47.9079,0,0,0,1,0,0,0,78.6346,65.5718,2.1734,-13.0627,20,
122,1,1,2,36,1,45.7597,16.9855,196.8736,3,1,2,2,0,0,1,16.9855,54.1782,3.1803,37.1927,0,
122,1,1,2,37,1,138.2116,316.1063,79.1853,3,1,2,3,1,0,0,79.1853,66.7362,2.2706,-12.4491,20,
122,1,1,2,38,1,319.2929,289.5553,168.4982,3,2,1,3,1,0,0,168.4982,160.1569,1.5279,-8.3413,30,
122,1,1,2,39,1,287.6468,199.1499,49.2938,1,2,3,3,0,0,1,49.2938,76.7389,1.8957,27.4451,10,
122,1,1,2,40,1,169.2518,139.5582,198.1964,1,2,3,2,0,1,0,139.5582,NaN,100000,999,0,
122,1,1,2,41,0,169.1329,48.3844,286.038,0,0,0,3,0,0,0,286.038,300.1843,2.1388,14.1463,20,
122,1,1,2,42,0,287.2569,316.9132,48.9482,0,0,0,2,0,0,0,316.9132,84.2035,1.8609,127.2903,0,
122,1,1,2,43,0,228.7938,349.9761,315.9329,0,0,0,3,0,0,0,315.9329,299.1813,1.7848,-16.7516,20,
122,1,1,2,44,1,285.9688,47.1618,258.7458,2,3,1,2,1,0,0,47.1618,58.21,1.2568,11.0482,30,
122,1,1,2,45,0,19.6749,137.3974,346.159,0,0,0,1,0,0,0,19.6749,11.6791,2.4929,-7.9958,30,
122,1,1,2,46,1,287.6548,259.506,317.7028,2,3,1,2,1,0,0,259.506,239.6533,1.5485,-19.8528,20,
122,1,1,2,47,1,105.9911,165.9754,316.6342,1,2,3,1,1,0,0,105.9911,111.6994,1.7222,5.7083,30,
122,1,1,2,48,0,109.0699,259.4922,77.1462,0,0,0,1,0,0,0,109.0699,94.6519,1.5417,-14.418,20,
122,1,1,2,49,0,315.4649,347.3174,285.0467,0,0,0,1,0,0,0,315.4649,297.241,1.6735,-18.2239,20,
122,1,1,2,50,1,77.1828,225.2461,105.2482,2,3,1,2,1,0,0,225.2461,232.9756,1.6458,7.7295,30,
122,1,1,2,51,0,17.3062,228.1966,259.5867,0,0,0,2,0,0,0,228.1966,229.1504,1.729,0.95382,40,
122,1,1,2,52,0,19.9049,195.6352,286.1612,0,0,0,2,0,0,0,195.6352,222.8741,1.5693,27.2389,10,
122,1,1,2,53,0,19.2845,75.217,318.4581,0,0,0,1,0,0,0,19.2845,24.1814,2.9512,4.897,30,
122,1,1,2,54,0,79.095,348.1246,228.6928,0,0,0,1,0,0,0,79.095,46.6505,1.1943,-32.4445,0,
122,1,1,2,55,0,49.4771,227.9126,257.9137,0,0,0,3,0,0,0,257.9137,236.183,1.5347,-21.7308,10,
122,1,1,2,56,0,47.0319,136.931,228.049,0,0,0,2,0,0,0,136.931,149.4259,1.2986,12.495,20,
122,1,1,2,57,0,77.6151,16.6265,49.1592,0,0,0,3,0,0,0,49.1592,59.2963,1.2985,10.137,30,
122,1,1,2,58,0,137.6428,345.2572,78.7844,0,0,0,2,0,0,0,345.2572,320.281,1.3194,-24.9761,10,
122,1,1,2,59,1,168.7425,317.7165,226.6907,3,2,1,2,0,1,0,317.7165,NaN,100000,999,0,
122,1,1,2,60,1,315.1258,197.0721,138.657,1,2,3,1,1,0,0,315.1258,302.2035,1.0485,-12.9223,20,
122,1,2,2,61,1,315.8145,169.192,195.8378,2,3,1,2,1,0,0,169.192,146.1864,0.70137,-23.0056,10,
122,1,2,2,62,0,109.7017,135.0292,228.0515,0,0,0,3,0,0,0,228.0515,209.9301,1.3818,-18.1214,20,
122,1,2,2,63,1,256.4523,47.0128,289.3103,1,2,3,1,1,0,0,256.4523,237.5033,1.2152,-18.949,20,
122,1,2,2,64,0,319.2054,76.7725,167.1503,0,0,0,3,0,0,0,167.1503,349.076,1.9721,-178.0744,0,
122,1,2,2,65,1,289.8173,135.4295,167.5025,2,3,1,2,1,0,0,135.4295,119.6947,2.479,-15.7348,20,
122,1,2,2,66,1,46.5193,197.4165,346.6891,2,3,1,2,1,0,0,197.4165,189.9232,1.1735,-7.4933,30,
122,1,2,2,67,1,79.9262,107.7974,169.668,1,2,3,1,1,0,0,79.9262,75.0138,1.5208,-4.9124,30,
122,1,2,2,68,1,135.5422,165.1806,228.0905,1,2,3,1,1,0,0,135.5422,116.7323,1.3819,-18.8099,20,
122,1,2,2,69,0,259.4502,346.651,166.1485,0,0,0,1,0,0,0,259.4502,244.2224,1.1735,-15.2277,20,
122,1,2,2,70,0,135.5697,19.8928,79.243,0,0,0,2,0,0,0,19.8928,21.2469,1.5693,1.3541,40,
122,1,2,2,71,1,285.5402,17.2994,137.2544,1,3,2,1,1,0,0,285.5402,267.7678,1.1249,-17.7725,20,
122,1,2,2,72,0,138.7045,347.534,165.9996,0,0,0,2,0,0,0,347.534,344.8655,1.3124,-2.6685,40,
122,1,2,2,73,1,169.3879,345.0718,46.4715,1,2,3,2,0,1,0,345.0718,NaN,100000,999,0,
122,1,2,2,74,1,227.7164,78.5126,19.7822,1,3,2,2,0,0,1,78.5126,338.2926,1.5624,-100.22,0,
122,1,2,2,75,1,78.8751,319.5709,48.9128,1,3,2,1,1,0,0,78.8751,94.1114,1.4651,15.2362,20,
122,1,2,2,76,0,48.4957,168.9813,137.2079,0,0,0,1,0,0,0,48.4957,70.6895,1.5555,22.1939,10,
122,1,2,2,77,1,315.7287,287.9252,345.3668,3,1,2,2,0,0,1,287.9252,304.448,1.4096,16.5228,20,
122,1,2,2,78,0,286.8252,226.5457,315.6046,0,0,0,1,0,0,0,286.8252,273.0009,1.6666,-13.8243,20,
122,1,2,2,79,0,256.6999,319.2336,46.2303,0,0,0,3,0,0,0,46.2303,47.801,1.3123,1.5707,40,
122,1,2,2,80,1,135.68,78.9445,105.462,1,3,2,1,1,0,0,135.68,122.2959,0.92363,-13.3842,20,
122,1,2,2,81,1,75.0988,319.8215,349.8519,1,2,3,1,1,0,0,75.0988,93.2989,0.9513,18.2001,20,
122,1,2,2,82,1,19.6916,226.2771,107.6658,3,2,1,3,1,0,0,107.6658,100.7069,1.8471,-6.9589,30,
122,1,2,2,83,0,138.9798,226.1669,78.0042,0,0,0,3,0,0,0,78.0042,95.1257,1.4652,17.1215,20,
122,1,2,2,84,1,346.4868,16.9821,317.1038,2,1,3,3,0,0,1,317.1038,347.6952,2.9928,30.5914,0,
122,1,2,2,85,1,317.7541,79.3545,195.2113,1,3,2,1,1,0,0,317.7541,305.9544,1.5277,-11.7997,30,
122,1,2,2,86,1,47.5997,169.9459,257.4496,1,2,3,1,1,0,0,47.5997,64.526,1.5346,16.9264,20,
122,1,2,2,87,0,79.0846,195.9474,105.6185,0,0,0,2,0,0,0,195.9474,177.1626,1.3888,-18.7847,20,
122,1,2,2,88,1,76.6599,319.1987,286.8586,3,1,2,3,1,0,0,286.8586,280.2344,0.95824,-6.6242,30,
122,1,2,2,89,1,135.784,76.6302,46.5703,1,2,3,1,1,0,0,135.784,122.9792,1.0485,-12.8048,20,
122,1,2,2,90,0,286.0726,228.3995,167.7865,0,0,0,2,0,0,0,228.3995,225.3707,1.4236,-3.0288,30,
122,1,2,2,91,1,287.0116,195.9092,139.2813,3,2,1,1,0,0,1,287.0116,272.8153,1.9791,-14.1964,20,
122,1,2,2,92,1,225.9992,318.0367,107.7152,3,2,1,3,1,0,0,107.7152,103.4733,1.4512,-4.2419,30,
122,1,2,2,93,0,48.791,169.4352,15.344,0,0,0,1,0,0,0,48.791,54.865,1.6387,6.074,30,
122,1,2,2,94,0,16.9081,317.8384,169.4393,0,0,0,3,0,0,0,169.4393,149.1214,1.4999,-20.3179,20,
122,1,2,2,95,0,139.6308,166.4925,256.6904,0,0,0,1,0,0,0,139.6308,135.2633,1.2568,-4.3676,30,
122,1,2,2,96,0,346.3991,77.235,47.9379,0,0,0,3,0,0,0,47.9379,51.6193,0.99979,3.6814,30,
122,1,2,2,97,0,349.442,316.1658,289.308,0,0,0,2,0,0,0,316.1658,318.8548,1.3195,2.689,40,
122,1,2,2,98,1,287.6372,108.625,348.0371,2,1,3,1,0,1,0,287.6372,NaN,100000,999,0,
122,1,2,2,99,1,349.0746,135.7025,259.3993,2,3,1,3,0,1,0,259.3993,NaN,100000,999,0,
122,1,2,2,100,0,15.4219,229.8604,285.1573,0,0,0,1,0,0,0,15.4219,22.994,1.4097,7.5722,30,
122,1,2,2,101,1,318.2673,77.4483,349.8643,3,1,2,3,1,0,0,349.8643,341.5659,1.5068,-8.2984,30,
122,1,2,2,102,1,287.6205,225.601,105.889,3,2,1,2,0,1,0,225.601,NaN,100000,999,0,
122,1,2,2,103,1,77.9122,257.105,345.4603,1,2,3,1,1,0,0,77.9122,70.0081,1.3263,-7.904,30,
122,1,2,2,104,0,15.8762,165.966,258.0821,0,0,0,2,0,0,0,165.966,157.53,1.5624,-8.436,30,
122,1,2,2,105,0,288.861,317.3768,18.4045,0,0,0,2,0,0,0,317.3768,338.4377,2.104,21.0609,10,
122,1,2,2,106,1,139.1315,79.956,197.6197,1,3,2,1,1,0,0,139.1315,129.7333,0.98596,-9.3982,30,
122,1,2,2,107,1,317.3578,347.715,225.2985,1,2,3,2,0,1,0,347.715,NaN,100000,999,0,
122,1,2,2,108,1,79.1667,256.0186,227.7221,3,2,1,1,0,0,1,79.1667,82.6706,1.3957,3.5039,30,
122,1,2,2,109,1,165.6614,49.3524,348.0148,1,3,2,1,1,0,0,165.6614,159.5853,1.0902,-6.0761,30,
122,1,2,2,110,0,76.8968,319.3234,17.0998,0,0,0,2,0,0,0,319.3234,327.6325,1.4652,8.3092,30,
122,1,2,2,111,1,349.1405,287.5372,16.8308,3,1,2,1,0,1,0,349.1405,NaN,100000,999,0,
122,1,2,2,112,1,167.8456,109.3752,136.7429,3,2,1,1,0,0,1,167.8456,162.6832,1.2846,-5.1623,30,
122,1,2,2,113,1,17.3376,75.7067,45.3407,2,1,3,2,1,0,0,75.7067,66.4887,1.0276,-9.2179,30,
122,1,2,2,114,0,346.2021,48.4245,319.1963,0,0,0,2,0,0,0,48.4245,52.9504,1.1319,4.5259,30,
122,1,2,2,115,0,316.9479,48.8765,285.8968,0,0,0,1,0,0,0,316.9479,332.6382,1.479,15.6903,20,
122,1,2,2,116,0,169.6136,317.8213,17.1573,0,0,0,2,0,0,0,317.8213,44.0443,1.2291,86.2229,0,
122,1,2,2,117,1,79.9629,257.2792,17.1302,3,1,2,3,1,0,0,17.1302,37.8033,1.3124,20.6731,20,
122,1,2,2,118,0,348.4165,318.0428,46.0983,0,0,0,1,0,0,0,348.4165,326.7573,1.8055,-21.6592,10,
122,1,2,2,119,0,169.7606,319.8793,345.1546,0,0,0,1,0,0,0,169.7606,175.3748,1.1041,5.6142,30,
122,1,2,2,120,0,196.2163,77.8571,319.9086,0,0,0,2,0,0,0,77.8571,50.1917,2.5139,-27.6654,10,
122,1,3,1,121,0,315.19,49.7712,258.7119,0,0,0,2,0,0,0,49.7712,47.7743,0.85401,-1.9969,40,
122,1,3,1,122,0,256.3059,75.474,107.2548,0,0,0,1,0,0,0,256.3059,246.1133,1.2707,-10.1925,30,
122,1,3,1,123,1,46.3872,285.0305,346.8736,2,1,3,2,1,0,0,285.0305,292.0728,0.79852,7.0422,30,
122,1,3,1,124,0,105.9184,319.3083,75.1632,0,0,0,1,0,0,0,105.9184,112.4768,1.1596,6.5584,30,
122,1,3,1,125,1,106.5588,195.2766,18.769,3,2,1,3,1,0,0,18.769,27.6824,1.2636,8.9134,30,
122,1,3,1,126,1,139.8817,17.9662,316.522,2,3,1,1,0,0,1,139.8817,105.4648,1.3332,-34.4168,0,
122,1,3,1,127,1,108.4447,349.7301,229.3677,3,1,2,3,1,0,0,229.3677,242.3328,1.1318,12.9652,20,
122,1,3,1,128,1,319.9646,15.8124,75.5678,1,2,3,1,1,0,0,319.9646,313.537,1.0563,-6.4277,30,
122,1,3,1,129,0,317.5047,196.66,135.8694,0,0,0,1,0,0,0,317.5047,303.1728,2.0276,-14.3319,20,
122,1,3,1,130,0,287.6892,169.3546,108.6142,0,0,0,1,0,0,0,287.6892,299.5912,2.7637,11.902,30,
122,1,3,1,131,1,347.3686,289.756,46.2448,2,1,3,2,1,0,0,289.756,299.8065,1.4651,10.0505,30,
122,1,3,1,132,1,167.2609,19.246,46.9522,2,1,3,2,1,0,0,19.246,31.4311,1.2985,12.1851,20,
122,1,3,1,133,1,197.6056,138.8715,165.6013,1,2,3,1,1,0,0,197.6056,208.9331,1.0347,11.3275,30,
122,1,3,1,134,1,167.5071,256.385,287.6698,1,2,3,2,0,1,0,256.385,287.093,1.8472,30.708,0,
122,1,3,1,135,1,75.2679,196.8753,288.875,1,2,3,3,0,0,1,288.875,167.15,2.8054,-121.725,0,
122,1,3,1,136,0,197.5604,348.6066,259.6442,0,0,0,1,0,0,0,197.5604,208.8161,0.99293,11.2556,30,
122,1,3,1,137,0,168.4379,109.9343,348.8497,0,0,0,3,0,0,0,348.8497,328.8318,1.2014,-20.0179,20,
122,1,3,1,138,1,198.6208,258.0684,348.9148,2,3,1,2,1,0,0,258.0684,296.1144,1.139,38.046,0,
122,1,3,1,139,1,345.3642,288.7561,229.1559,1,2,3,1,1,0,0,345.3642,323.5661,1.2152,-21.798,10,
122,1,3,1,140,1,229.1626,289.9769,348.2488,1,2,3,2,0,1,0,289.9769,301.4529,1.4026,11.476,30,
122,1,3,1,141,0,196.0322,256.693,137.8706,0,0,0,1,0,0,0,196.0322,210.8692,0.96532,14.837,20,
122,1,3,1,142,0,137.2949,199.3049,318.3042,0,0,0,2,0,0,0,199.3049,174.6295,1.347,-24.6754,10,
122,1,3,1,143,0,319.5075,166.5917,77.9854,0,0,0,1,0,0,0,319.5075,319.9707,1.4722,0.46318,40,
122,1,3,1,144,1,198.7463,49.2093,255.8344,3,2,1,1,0,0,1,198.7463,199.7875,1.2084,1.0412,40,
122,1,3,1,145,1,47.6562,169.7795,195.3334,1,2,3,1,1,0,0,47.6562,47.9614,3.0553,0.30523,40,
122,1,3,1,146,0,285.7627,255.7778,345.4478,0,0,0,2,0,0,0,255.7778,265.3383,1.2777,9.5605,30,
122,1,3,1,147,1,346.1715,287.3235,18.0969,3,2,1,3,1,0,0,18.0969,25.6005,1.1944,7.5036,30,
122,1,3,1,148,1,286.6012,47.4647,76.1083,1,2,3,2,0,1,0,47.4647,30.1412,1.4027,-17.3235,20,
122,1,3,1,149,0,169.9519,135.1685,257.1213,0,0,0,1,0,0,0,169.9519,166.9263,1.132,-3.0256,30,
122,1,3,1,150,1,135.5186,76.8876,286.3143,2,3,1,2,1,0,0,76.8876,68.2435,0.63193,-8.6441,30,
122,1,3,1,151,1,136.9241,15.8132,228.9838,2,3,1,1,0,0,1,136.9241,100.5926,1.4583,-36.3315,0,
122,1,3,1,152,1,256.3422,16.2905,47.405,1,3,2,1,1,0,0,256.3422,255.1868,1.0834,-1.1554,40,
122,1,3,1,153,1,46.019,79.9667,135.4681,3,1,2,3,1,0,0,135.4681,119.6756,1.4027,-15.7925,20,
122,1,3,1,154,1,139.2935,49.6024,78.7542,2,3,1,2,1,0,0,49.6024,37.6094,0.82642,-11.993,30,
122,1,3,1,155,0,287.1087,317.0566,79.7957,0,0,0,2,0,0,0,317.0566,327.4742,1.6387,10.4177,30,
122,1,3,1,156,0,108.3266,79.8213,348.3558,0,0,0,3,0,0,0,348.3558,332.2335,0.87503,-16.1222,20,
122,1,3,1,157,1,75.3655,287.9028,346.4351,2,1,3,2,1,0,0,287.9028,285.0683,1.271,-2.8345,40,
122,1,3,1,158,0,198.7184,106.9255,16.2575,0,0,0,3,0,0,0,16.2575,324.3272,1.3054,-51.9303,0,
122,1,3,1,159,1,19.4394,316.2826,169.834,3,1,2,2,0,0,1,316.2826,308.3286,1.2361,-7.954,30,
122,1,3,1,160,1,198.7854,49.4316,347.3611,1,3,2,1,1,0,0,198.7854,193.0204,0.78475,-5.7651,30,
122,1,3,1,161,1,256.8834,287.5216,198.8175,3,2,1,3,1,0,0,198.8175,215.2466,1.2638,16.4291,20,
122,1,3,1,162,1,15.4179,197.5633,289.1643,2,1,3,2,1,0,0,197.5633,174.9514,1.0277,-22.6119,10,
122,1,3,1,163,0,225.9814,285.6068,317.7185,0,0,0,3,0,0,0,317.7185,315.3854,0.88193,-2.3331,40,
122,1,3,1,164,1,226.822,15.8574,348.9768,2,1,3,2,1,0,0,15.8574,10.0549,1.1111,-5.8025,30,
122,1,3,1,165,0,108.4765,49.8046,227.7316,0,0,0,2,0,0,0,49.8046,36.1253,0.78459,-13.6792,20,
122,1,3,1,166,1,139.2915,349.5471,169.8083,2,1,3,2,1,0,0,349.5471,338.5778,0.86798,-10.9692,30,
122,1,3,1,167,0,317.665,166.6339,78.011,0,0,0,3,0,0,0,78.011,68.3861,1.1249,-9.6248,30,
122,1,3,1,168,1,45.8568,286.6499,19.8324,3,1,2,1,0,1,0,45.8568,72.273,1.3749,26.4161,10,
122,1,3,1,169,1,106.7704,226.3312,346.4575,1,2,3,1,1,0,0,106.7704,107.8198,0.91668,1.0494,40,
122,1,3,1,170,0,49.4181,287.1224,18.0363,0,0,0,1,0,0,0,49.4181,73.1743,1.3124,23.7562,10,
122,1,3,1,171,1,17.7364,197.7674,108.1529,2,3,1,2,1,0,0,197.7674,199.2032,0.90963,1.4357,40,
122,1,3,1,172,1,345.4081,166.3724,229.3376,1,3,2,1,1,0,0,345.4081,342.631,1.0207,-2.7772,40,
122,1,3,1,173,0,198.8857,346.9197,288.5578,0,0,0,2,0,0,0,346.9197,0.1313,1.2915,13.2116,20,
122,1,3,1,174,1,285.827,225.908,348.4572,3,2,1,3,1,0,0,348.4572,357.8759,0.93055,9.4188,30,
122,1,3,1,175,1,165.0106,319.7555,18.8315,1,3,2,1,1,0,0,165.0106,167.8582,0.78482,2.8476,40,
122,1,3,1,176,1,45.903,107.8665,75.8178,2,1,3,3,0,0,1,75.8178,55.0511,1.2568,-20.7667,20,
122,1,3,1,177,1,46.1465,285.9111,225.8318,2,3,1,2,1,0,0,285.9111,295.3406,0.82646,9.4294,30,
122,1,3,1,178,0,108.3036,169.7062,19.8785,0,0,0,2,0,0,0,169.7062,139.8061,1.118,-29.9001,10,
122,1,3,1,179,0,259.2268,109.3944,138.7309,0,0,0,2,0,0,0,109.3944,108.0308,1.5623,-1.3636,40,
122,1,3,1,180,1,17.2394,78.5482,169.7217,2,1,3,3,0,0,1,169.7217,158.1637,3.1041,-11.558,30,
122,1,4,1,181,0,228.2734,195.1307,18.9289,0,0,0,3,0,0,0,18.9289,171.2459,0.97916,152.317,0,
122,1,4,1,182,0,109.9695,258.0224,229.7245,0,0,0,2,0,0,0,258.0224,260.7211,1.6319,2.6987,40,
122,1,4,1,183,1,285.552,166.0832,199.0551,1,3,2,3,0,1,0,199.0551,212.9202,1.4236,13.8651,20,
122,1,4,1,184,1,108.221,255.3397,226.0396,1,3,2,2,0,0,1,255.3397,265.0305,1.1735,9.6908,30,
122,1,4,1,185,1,319.6343,15.0415,79.1231,3,2,1,3,1,0,0,79.1231,77.3875,0.98608,-1.7357,40,
122,1,4,1,186,0,289.6135,166.6016,349.2877,0,0,0,1,0,0,0,289.6135,281.1202,1.2499,-8.4933,30,
122,1,4,1,187,0,135.0642,315.9331,77.4262,0,0,0,2,0,0,0,315.9331,324.9009,1.2499,8.9678,30,
122,1,4,1,188,1,137.8393,227.1325,45.3812,2,1,3,2,1,0,0,227.1325,229.02,1.0346,1.8874,40,
122,1,4,1,189,0,169.7982,15.4454,288.9887,0,0,0,1,0,0,0,169.7982,165.8141,1.2083,-3.9842,30,
122,1,4,1,190,0,137.5494,76.9126,259.5274,0,0,0,3,0,0,0,259.5274,265.367,0.78463,5.8396,30,
122,1,4,1,191,0,345.9222,75.2283,289.4252,0,0,0,3,0,0,0,289.4252,265.7663,0.79157,-23.6589,10,
122,1,4,1,192,1,48.1135,105.3177,286.8675,2,3,1,2,1,0,0,105.3177,107.6159,0.74996,2.2982,40,
122,1,4,1,193,1,76.7084,347.7434,17.3027,1,2,3,1,1,0,0,76.7084,82.8655,1.0416,6.1571,30,
122,1,4,1,194,1,257.1951,105.7453,195.1414,2,1,3,2,1,0,0,105.7453,105.492,0.75681,-0.25327,40,
122,1,4,1,195,0,317.404,105.3326,79.4889,0,0,0,2,0,0,0,105.3326,104.8959,1.132,-0.43666,40,
122,1,4,1,196,0,76.7007,169.5946,107.2813,0,0,0,3,0,0,0,107.2813,99.3873,1.3542,-7.894,30,
122,1,4,1,197,0,347.9954,168.0078,108.2471,0,0,0,3,0,0,0,108.2471,105.8367,1.4721,-2.4104,40,
122,1,4,1,198,0,136.8788,169.3173,286.4599,0,0,0,1,0,0,0,136.8788,134.3963,0.99997,-2.4825,40,
122,1,4,1,199,1,196.4215,17.1766,229.5188,1,3,2,1,1,0,0,196.4215,209.4734,0.80556,13.0519,20,
122,1,4,1,200,1,287.6707,136.834,196.8197,2,1,3,1,0,1,0,287.6707,293.5533,1.4166,5.8826,30,
122,1,4,1,201,1,229.9196,49.8989,16.2508,2,3,1,2,1,0,0,49.8989,42.5067,0.84027,-7.3923,30,
122,1,4,1,202,0,195.0178,169.0762,228.1921,0,0,0,2,0,0,0,169.0762,177.087,1.0902,8.0108,30,
122,1,4,1,203,0,257.3316,289.7577,49.825,0,0,0,2,0,0,0,289.7577,323.7975,1.2568,34.0399,0,
122,1,4,1,204,0,259.0554,288.5523,139.8512,0,0,0,3,0,0,0,139.8512,133.092,1.0902,-6.7592,30,
122,1,4,1,205,1,286.2257,165.3206,76.3157,1,2,3,2,0,1,0,165.3206,198.1283,1.3194,32.8077,0,
122,1,4,1,206,1,315.0382,228.0546,17.0404,3,2,1,1,0,0,1,315.0382,276.2148,1.3888,-38.8233,0,
122,1,4,1,207,1,108.5521,168.4433,16.6047,1,2,3,1,1,0,0,108.5521,114.535,0.96504,5.9828,30,
122,1,4,1,208,1,75.8955,138.1723,319.8148,3,2,1,1,0,0,1,75.8955,100.4907,0.99989,24.5952,10,
122,1,4,1,209,1,169.5658,108.4126,319.7337,1,2,3,1,1,0,0,169.5658,161.7924,0.70132,-7.7733,30,
122,1,4,1,210,0,315.4142,19.752,75.0819,0,0,0,3,0,0,0,75.0819,66.793,1.0693,-8.2888,30,
122,1,4,1,211,1,317.3943,106.5406,48.7222,2,3,1,3,0,1,0,48.7222,57.9568,1.2292,9.2346,30,
122,1,4,1,212,1,286.3409,257.7512,45.9026,3,2,1,1,0,0,1,286.3409,263.5729,1.3263,-22.768,10,
122,1,4,1,213,1,77.0324,49.759,139.5599,1,3,2,1,1,0,0,77.0324,95.1277,1.2013,18.0953,20,
122,1,4,1,214,0,318.0144,166.8875,138.3247,0,0,0,1,0,0,0,318.0144,312.1247,1.2986,-5.8897,30,
122,1,4,1,215,1,198.4041,109.616,45.7642,2,3,1,3,0,1,0,45.7642,39.7726,1.1665,-5.9916,30,
122,1,4,1,216,1,45.5504,196.3961,258.8382,1,2,3,1,1,0,0,45.5504,55.3435,1.4583,9.7931,30,
122,1,4,1,217,1,226.2324,48.3037,346.647,2,3,1,2,1,0,0,48.3037,36.1063,0.84728,-12.1974,20,
122,1,4,1,218,0,49.0048,137.7749,107.0944,0,0,0,2,0,0,0,137.7749,122.9646,1.0347,-14.8103,20,
122,1,4,1,219,0,167.4934,18.693,255.0638,0,0,0,1,0,0,0,167.4934,141.8934,0.97221,-25.6,10,
122,1,4,1,220,0,288.6709,195.521,228.9629,0,0,0,2,0,0,0,195.521,177.6273,1.1667,-17.8938,20,
122,1,4,1,221,0,165.2439,196.5692,108.2082,0,0,0,2,0,0,0,196.5692,204.5068,2.1943,7.9376,30,
122,1,4,1,222,0,48.3979,197.8389,288.2589,0,0,0,3,0,0,0,288.2589,275.2617,2.84,-12.9972,20,
122,1,4,1,223,1,109.8933,45.5568,136.9804,1,3,2,1,1,0,0,109.8933,114.0086,1.7776,4.1153,30,
122,1,4,1,224,1,78.9946,289.6512,345.0236,1,3,2,1,1,0,0,78.9946,94.6275,1.0416,15.6329,20,
122,1,4,1,225,1,165.1751,197.0274,76.2483,3,1,2,3,1,0,0,76.2483,81.5997,0.98612,5.3513,30,
122,1,4,1,226,0,138.6715,347.4974,169.7165,0,0,0,3,0,0,0,169.7165,155.8712,1.6943,-13.8453,20,
122,1,4,1,227,1,167.6721,77.1758,345.7885,2,3,1,2,1,0,0,77.1758,124.9785,1.9304,47.8027,0,
122,1,4,1,228,0,79.4084,198.6705,227.0322,0,0,0,2,0,0,0,198.6705,210.3751,0.9791,11.7046,30,
122,1,4,1,229,1,256.2999,78.9343,137.5579,2,3,1,1,0,0,1,256.2999,272.6178,1.3887,16.3178,20,
122,1,4,1,230,1,258.2465,78.8143,167.8784,1,2,3,1,1,0,0,258.2465,245.3264,0.85406,-12.9201,20,
122,1,4,1,231,0,315.1631,197.1487,45.1863,0,0,0,3,0,0,0,45.1863,41.7844,1.0902,-3.4019,30,
122,1,4,1,232,0,166.0708,105.0193,259.4029,0,0,0,2,0,0,0,105.0193,96.4585,1.2013,-8.5608,30,
122,1,4,1,233,0,285.4293,17.6559,49.4428,0,0,0,1,0,0,0,285.4293,305.6709,0.93751,20.2416,20,
122,1,4,1,234,1,137.0614,166.811,48.907,3,2,1,3,1,0,0,48.907,53.3244,0.82633,4.4175,30,
122,1,4,1,235,0,258.397,19.884,195.6273,0,0,0,3,0,0,0,195.6273,21.0442,0.77069,-174.5831,0,
122,1,4,1,236,0,167.6627,229.6285,109.4954,0,0,0,3,0,0,0,109.4954,113.8287,1.2986,4.3333,30,
122,1,4,1,237,1,289.3028,79.6955,258.401,1,3,2,3,0,1,0,258.401,97.147,1.3402,-161.2539,0,
122,1,4,1,238,1,167.6572,228.169,345.0705,2,1,3,2,1,0,0,228.169,229.9134,0.66677,1.7444,40,
122,1,4,1,239,1,78.7617,259.4745,169.2092,1,2,3,1,1,0,0,78.7617,78.1034,1.0345,-0.65826,40,
122,1,4,1,240,1,138.6643,105.5838,18.7302,2,1,3,1,0,1,0,138.6643,65.9778,1.1875,-72.6865,0,
122,1,5,1,241,1,167.0559,316.1824,255.9753,2,1,3,2,1,0,0,316.1824,322.694,0.66671,6.5116,30,
122,1,5,1,242,1,225.5146,49.9844,196.7948,1,2,3,1,1,0,0,225.5146,221.6978,0.53466,-3.8167,30,
122,1,5,1,243,1,77.9323,198.8902,258.6385,2,1,3,2,1,0,0,198.8902,176.2423,0.79862,-22.6479,10,
122,1,5,1,244,1,228.7567,317.6118,347.4522,1,2,3,2,0,1,0,317.6118,327.6804,1.3888,10.0686,30,
122,1,5,1,245,1,16.2011,225.3515,286.5002,3,1,2,3,1,0,0,286.5002,303.6793,0.71529,17.1791,20,
122,1,5,1,246,0,166.4226,49.1528,229.0918,0,0,0,1,0,0,0,166.4226,160.5387,0.90269,-5.8838,30,
122,1,5,1,247,1,48.2004,108.9378,136.35,3,2,1,3,1,0,0,136.35,126.8971,0.92357,-9.4529,30,
122,1,5,1,248,1,135.4472,258.6564,229.5193,1,2,3,3,0,0,1,229.5193,217.7848,1.2499,-11.7344,30,
122,1,5,1,249,1,139.9175,46.2417,348.0318,3,1,2,2,0,0,1,46.2417,86.8911,0.95829,40.6494,0,
122,1,5,1,250,1,287.9163,196.3027,345.4241,2,1,3,1,0,1,0,287.9163,282.3421,1.3332,-5.5742,30,
122,1,5,1,251,0,199.6498,106.4098,345.8444,0,0,0,1,0,0,0,199.6498,225.4946,0.82635,25.8449,10,
122,1,5,1,252,0,169.1344,316.5048,346.9194,0,0,0,3,0,0,0,346.9194,330.7941,0.93055,-16.1253,20,
122,1,5,1,253,0,195.6162,138.6794,225.7831,0,0,0,2,0,0,0,138.6794,140.2442,0.82626,1.5648,40,
122,1,5,1,254,1,105.6737,316.6189,199.7527,3,2,1,1,0,0,1,105.6737,124.7932,1.1735,19.1195,20,
122,1,5,1,255,0,319.0859,286.8877,49.863,0,0,0,1,0,0,0,319.0859,286.6177,2.361,-32.4682,0,
122,1,5,1,256,1,169.9745,197.4529,47.5173,3,2,1,1,0,0,1,169.9745,158.3724,1.5485,-11.6021,30,
122,1,5,1,257,1,108.6293,256.6972,346.3634,3,1,2,3,1,0,0,346.3634,336.2909,0.75695,-10.0725,30,
122,1,5,1,258,1,315.1454,285.681,18.4728,1,3,2,2,0,0,1,285.681,291.6863,1.375,6.0053,30,
122,1,5,1,259,0,345.3735,195.9123,165.1584,0,0,0,2,0,0,0,195.9123,354.6171,1.7776,158.7049,0,
122,1,5,1,260,1,48.6624,345.8147,229.6054,1,3,2,3,0,1,0,229.6054,222.7091,2.1388,-6.8962,30,
122,1,5,1,261,1,75.0066,49.9063,17.851,1,3,2,1,1,0,0,75.0066,78.3149,1.3402,3.3084,30,
122,1,5,1,262,1,108.7804,256.4412,78.0309,1,3,2,1,1,0,0,108.7804,96.6417,1.0415,-12.1387,20,
122,1,5,1,263,0,136.1479,165.0346,318.8332,0,0,0,2,0,0,0,165.0346,137.5437,0.99297,-27.4908,10,
122,1,5,1,264,1,197.5948,19.1099,348.1851,3,1,2,2,0,0,1,19.1099,141.2605,1.7431,122.1506,0,
122,1,5,1,265,0,107.0495,196.8559,226.1343,0,0,0,1,0,0,0,107.0495,117.8706,1.0139,10.8212,30,
122,1,5,1,266,0,168.9651,139.0778,48.7606,0,0,0,3,0,0,0,48.7606,40.8288,1.1597,-7.9318,30,
122,1,5,1,267,0,317.7818,139.8454,168.4456,0,0,0,1,0,0,0,317.7818,310.5906,1.1874,-7.1913,30,
122,1,5,1,268,0,345.0331,197.9865,288.2959,0,0,0,2,0,0,0,197.9865,192.1231,1.236,-5.8634,30,
122,1,5,1,269,1,168.9406,229.348,288.9377,2,3,1,2,1,0,0,229.348,227.5516,1.3747,-1.7964,40,
122,1,5,1,270,0,165.9414,106.621,288.5802,0,0,0,1,0,0,0,165.9414,159.6446,0.80555,-6.2968,30,
122,1,5,1,271,1,168.5983,256.5138,47.2951,3,1,2,3,1,0,0,47.2951,53.6715,0.94437,6.3764,30,
122,1,5,1,272,1,17.1214,319.5277,287.0866,3,1,2,3,1,0,0,287.0866,293.7709,0.82624,6.6843,30,
122,1,5,1,273,1,285.9294,16.4572,317.3083,2,3,1,2,1,0,0,16.4572,12.4494,1.2083,-4.0079,30,
122,1,5,1,274,1,135.8698,195.5877,105.8702,3,2,1,3,1,0,0,105.8702,109.7544,1.1181,3.8842,30,
122,1,5,1,275,0,107.3868,259.4494,195.3254,0,0,0,1,0,0,0,107.3868,101.8289,1.1945,-5.5579,30,
122,1,5,1,276,0,136.9238,347.8132,168.1692,0,0,0,3,0,0,0,168.1692,340.6179,1.1944,172.4487,0,
122,1,5,1,277,0,227.7422,136.0392,108.9229,0,0,0,1,0,0,0,227.7422,232.1816,1.3262,4.4394,30,
122,1,5,1,278,1,138.9978,348.9808,289.7704,3,1,2,3,1,0,0,289.7704,294.6729,0.94436,4.9025,30,
122,1,5,1,279,1,136.8617,167.0285,17.1941,1,3,2,1,1,0,0,136.8617,128.6118,0.81937,-8.2498,30,
122,1,5,1,280,1,318.5183,259.5948,138.3004,1,3,2,1,1,0,0,318.5183,313.1086,0.74318,-5.4097,30,
122,1,5,1,281,0,225.1476,257.3617,288.3922,0,0,0,1,0,0,0,225.1476,239.2919,0.98615,14.1443,20,
122,1,5,1,282,1,19.5042,105.6908,48.9704,3,1,2,3,1,0,0,48.9704,48.9427,1.0347,-0.027641,40,
122,1,5,1,283,1,45.9366,77.7282,136.2756,3,1,2,1,0,1,0,45.9366,54.6079,1.5832,8.6713,30,
122,1,5,1,284,1,169.4306,45.747,257.1734,3,1,2,3,1,0,0,257.1734,268.1159,0.87482,10.9425,30,
122,1,5,1,285,1,287.5569,16.0754,106.7305,1,3,2,3,0,1,0,106.7305,78.0437,1.1877,-28.6869,10,
122,1,5,1,286,0,287.3987,75.9933,316.1951,0,0,0,3,0,0,0,316.1951,320.2201,1.0347,4.0251,30,
122,1,5,1,287,1,259.6331,285.4745,76.8771,2,3,1,3,0,1,0,76.8771,69.4929,1.3401,-7.3842,30,
122,1,5,1,288,0,197.3872,316.5277,47.5817,0,0,0,3,0,0,0,47.5817,55.4933,1.2846,7.9117,30,
122,1,5,1,289,0,319.7979,108.851,79.3751,0,0,0,1,0,0,0,319.7979,293.2285,1.5347,-26.5694,10,
122,1,5,1,290,0,16.3184,229.58,348.0752,0,0,0,2,0,0,0,229.58,257.8297,1.2985,28.2497,10,
122,1,5,1,291,1,347.7596,17.0191,198.7506,3,1,2,3,1,0,0,198.7506,206.3266,1.5832,7.576,30,
122,1,5,1,292,1,229.2868,75.9901,315.778,2,3,1,2,1,0,0,75.9901,66.1955,0.81246,-9.7946,30,
122,1,5,1,293,1,76.7418,17.4316,258.3976,1,3,2,1,1,0,0,76.7418,100.3915,1.0693,23.6497,10,
122,1,5,1,294,0,139.9652,345.4822,196.5657,0,0,0,2,0,0,0,345.4822,332.9782,1.6805,-12.504,20,
122,1,5,1,295,0,258.5304,135.1951,198.0815,0,0,0,3,0,0,0,198.0815,211.3312,1.4374,13.2497,20,
122,1,5,1,296,0,79.9196,45.2887,106.9827,0,0,0,1,0,0,0,79.9196,77.2777,1.1944,-2.642,40,
122,1,5,1,297,1,139.4131,317.1872,79.1748,1,2,3,1,1,0,0,139.4131,135.6639,0.98602,-3.7492,30,
122,1,5,1,298,1,169.0204,227.8133,108.7544,2,1,3,3,0,0,1,108.7544,115.3832,1.3541,6.6288,30,
122,1,5,1,299,0,15.6194,315.9312,168.2325,0,0,0,1,0,0,0,15.6194,17.3675,1.7359,1.7481,40,
122,1,5,1,300,1,108.8763,47.9592,16.8809,2,3,1,2,1,0,0,47.9592,241.6859,1.5694,-166.2732,0,
122,1,6,1,301,1,46.9234,135.2004,227.9147,2,3,1,2,1,0,0,135.2004,121.5813,0.74299,-13.6191,20,
122,1,6,1,302,1,195.7893,347.5433,258.0165,3,1,2,3,1,0,0,258.0165,129.0277,1.4791,-128.9888,0,
122,1,6,1,303,0,16.8971,197.9642,135.3425,0,0,0,2,0,0,0,197.9642,221.7998,1.0139,23.8355,10,
122,1,6,1,304,1,347.1749,287.7893,258.1939,3,2,1,3,1,0,0,258.1939,251.3569,1.3542,-6.837,30,
122,1,6,1,305,0,16.4771,196.8306,76.7452,0,0,0,3,0,0,0,76.7452,71.1659,1.7081,-5.5793,30,
122,1,6,1,306,1,317.1352,167.8886,349.4976,2,1,3,2,1,0,0,167.8886,153.4415,0.86799,-14.4472,20,
122,1,6,1,307,0,349.4673,318.2654,15.2014,0,0,0,2,0,0,0,318.2654,335.9126,1.2638,17.6472,20,
122,1,6,1,308,1,348.6462,168.243,137.3733,3,2,1,3,1,0,0,137.3733,144.3945,1.1597,7.0212,30,
122,1,6,1,309,1,136.4477,45.0925,348.5075,1,3,2,1,1,0,0,136.4477,130.6898,0.81244,-5.7579,30,
122,1,6,1,310,0,315.7111,256.8779,168.9678,0,0,0,2,0,0,0,256.8779,289.29,1.3818,32.4121,0,
122,1,6,1,311,1,169.758,196.7334,286.4866,3,2,1,3,1,0,0,286.4866,286.8817,0.7153,0.39511,40,
122,1,6,1,312,0,259.5246,346.4085,138.0694,0,0,0,3,0,0,0,138.0694,163.5377,1.2778,25.4683,10,
122,1,6,1,313,0,225.0449,48.5914,257.2471,0,0,0,2,0,0,0,48.5914,41.086,1.4582,-7.5054,30,
122,1,6,1,314,0,109.9422,346.2555,196.5774,0,0,0,1,0,0,0,109.9422,111.6803,1.0207,1.7381,40,
122,1,6,1,315,1,46.3042,227.4654,109.2792,2,3,1,2,1,0,0,227.4654,242.1639,1.2429,14.6985,20,
122,1,6,1,316,0,257.3016,227.5784,76.36,0,0,0,3,0,0,0,76.36,69.3812,1.0486,-6.9787,30,
122,1,6,1,317,0,257.7944,16.1293,135.5226,0,0,0,2,0,0,0,16.1293,24.19,1.2916,8.0608,30,
122,1,6,1,318,1,19.299,47.9853,288.2738,3,2,1,1,0,0,1,19.299,66.0361,1.0624,46.7371,0,
122,1,6,1,319,1,195.14,255.3342,79.6353,2,1,3,3,0,0,1,79.6353,70.7479,1.0347,-8.8874,30,
122,1,6,1,320,1,15.1824,255.3184,106.6144,2,1,3,2,1,0,0,255.3184,260.1767,0.76379,4.8583,30,
122,1,6,1,321,1,107.9897,225.1151,19.4971,3,2,1,3,1,0,0,19.4971,32.4644,0.58338,12.9672,20,
122,1,6,1,322,1,197.2525,47.8892,285.3742,1,2,3,2,0,1,0,47.8892,27.3767,0.97909,-20.5125,20,
122,1,6,1,323,1,17.2564,316.2498,139.7772,1,3,2,1,1,0,0,17.2564,23.5025,0.88889,6.2461,30,
122,1,6,1,324,0,17.2228,288.1376,347.6732,0,0,0,1,0,0,0,17.2228,20.7221,1.1735,3.4993,30,
122,1,6,1,325,1,317.5363,165.5686,257.4522,1,2,3,1,1,0,0,317.5363,335.1338,0.95829,17.5974,20,
122,1,6,1,326,0,47.5541,317.8229,199.9686,0,0,0,1,0,0,0,47.5541,44.0682,1.0625,-3.4859,30,
122,1,6,1,327,0,106.6799,75.7242,346.2244,0,0,0,3,0,0,0,346.2244,333.7386,0.77086,-12.4858,20,
122,1,6,1,328,1,169.2888,79.31,346.5665,3,2,1,3,1,0,0,346.5665,338.737,0.65974,-7.8295,30,
122,1,6,1,329,1,319.3634,106.4291,198.2842,3,1,2,3,1,0,0,198.2842,211.8432,1.0971,13.559,20,
122,1,6,1,330,0,349.5954,197.0535,78.6618,0,0,0,2,0,0,0,197.0535,163.7665,2.6248,-33.2871,0,
122,1,6,1,331,1,15.0076,347.81,287.7324,2,3,1,3,0,1,0,287.7324,274.9967,1.125,-12.7357,20,
122,1,6,1,332,1,285.9061,227.1312,255.4908,3,2,1,3,1,0,0,255.4908,275.1562,0.64582,19.6653,20,
122,1,6,1,333,0,345.6878,197.1204,228.8228,0,0,0,2,0,0,0,197.1204,191.6584,1.2292,-5.462,30,
122,1,6,1,334,0,165.8893,259.9342,75.085,0,0,0,3,0,0,0,75.085,80.4475,1.0833,5.3625,30,
122,1,6,1,335,1,18.1545,289.4599,318.367,2,1,3,2,1,0,0,289.4599,298.7535,1.0346,9.2936,30,
122,1,6,1,336,1,227.6908,319.5507,166.7535,2,3,1,2,1,0,0,319.5507,314.5782,1.0277,-4.9725,30,
122,1,6,1,337,1,256.578,109.9701,229.9195,3,1,2,3,1,0,0,229.9195,228.3224,0.90973,-1.5971,40,
122,1,6,1,338,1,258.626,319.1718,285.0945,1,2,3,1,1,0,0,258.626,257.28,1.4651,-1.346,40,
122,1,6,1,339,1,289.6574,136.8901,18.0884,3,2,1,2,0,1,0,136.8901,138.0043,2.0068,1.1141,40,
122,1,6,1,340,1,107.9087,195.499,225.833,2,1,3,2,1,0,0,195.499,182.0948,1.2221,-13.4042,20,
122,1,6,1,341,0,19.4256,46.0482,167.4018,0,0,0,3,0,0,0,167.4018,194.1999,1.8887,26.7981,10,
122,1,6,1,342,1,78.6958,106.2681,18.5963,3,1,2,2,0,0,1,106.2681,132.2175,1.25,25.9494,10,
122,1,6,1,343,0,258.1371,347.3141,105.6472,0,0,0,3,0,0,0,105.6472,97.1602,1.4305,-8.487,30,
122,1,6,1,344,0,229.993,137.5676,346.9392,0,0,0,3,0,0,0,346.9392,338.2189,0.95829,-8.7204,30,
122,1,6,1,345,1,199.8122,16.5687,48.9854,3,2,1,2,0,1,0,16.5687,24.9394,1.0485,8.3707,30,
122,1,6,1,346,1,49.5963,169.9447,79.663,3,1,2,3,1,0,0,79.663,70.6334,0.79165,-9.0296,30,
122,1,6,1,347,1,195.941,315.5034,346.4328,3,2,1,3,1,0,0,346.4328,331.9957,0.90279,-14.4372,20,
122,1,6,1,348,0,106.7758,228.1557,19.3227,0,0,0,2,0,0,0,228.1557,137.5431,2.8678,-90.6127,0,
122,1,6,1,349,1,16.1481,136.7947,46.8158,3,1,2,3,1,0,0,46.8158,44.3586,1.0347,-2.4573,40,
122,1,6,1,350,0,346.4404,166.8831,225.7325,0,0,0,1,0,0,0,346.4404,168.1363,1.3541,-178.3041,0,
122,1,6,1,351,1,255.7971,226.3939,18.2247,3,1,2,3,1,0,0,18.2247,54.1033,1.0556,35.8786,0,
122,1,6,1,352,0,75.5483,347.8292,256.3717,0,0,0,3,0,0,0,256.3717,260.4082,1.7984,4.0365,30,
122,1,6,1,353,1,288.1388,77.2337,19.0555,1,2,3,2,0,1,0,77.2337,84.9794,1.5624,7.7457,30,
122,1,6,1,354,1,196.9487,15.7521,166.6685,2,1,3,3,0,0,1,166.6685,177.9504,1.2013,11.2819,30,
122,1,6,1,355,1,106.9478,257.4507,79.4345,1,3,2,1,1,0,0,106.9478,97.0992,1.2151,-9.8487,30,
122,1,6,1,356,0,319.31,345.6282,258.2279,0,0,0,1,0,0,0,319.31,152.75,1.1527,-166.56,0,
122,1,6,1,357,1,138.9567,288.2831,107.7184,1,3,2,3,0,1,0,107.7184,88.6243,1.257,-19.0941,20,
122,1,6,1,358,1,315.156,289.1379,16.3213,2,3,1,3,0,1,0,16.3213,25.5851,1.1804,9.2638,30,
122,1,6,1,359,1,258.0154,135.9201,225.4373,1,3,2,2,0,0,1,135.9201,102.0839,1.3957,-33.8361,0,
122,1,6,1,360,1,139.5235,198.8365,47.8133,3,1,2,3,1,0,0,47.8133,29.2416,1.0694,-18.5718,20,
122,1,7,2,361,0,137.7436,195.0777,75.4734,0,0,0,2,0,0,0,195.0777,171.4457,0.99998,-23.632,10,
122,1,7,2,362,1,256.7246,198.4634,348.583,2,3,1,2,1,0,0,198.4634,200.1169,0.88878,1.6535,40,
122,1,7,2,363,1,135.1638,79.2181,258.8515,3,2,1,2,0,1,0,79.2181,NaN,100000,999,0,
122,1,7,2,364,1,318.2542,229.9111,195.9692,2,1,3,2,1,0,0,229.9111,229.8188,2.1457,-0.092227,40,
122,1,7,2,365,1,108.4551,288.2361,228.1172,1,2,3,1,1,0,0,108.4551,100.1921,0.9096,-8.263,30,
122,1,7,2,366,1,346.1287,288.3308,49.3567,3,1,2,3,1,0,0,49.3567,86.0281,0.80558,36.6714,0,
122,1,7,2,367,0,228.7525,46.6696,168.1642,0,0,0,2,0,0,0,46.6696,42.0685,0.86891,-4.6012,30,
122,1,7,2,368,1,226.3755,139.1398,258.9639,1,2,3,1,1,0,0,226.3755,230.8646,0.92355,4.4892,30,
122,1,7,2,369,0,79.0965,319.6324,17.5706,0,0,0,1,0,0,0,79.0965,87.8176,1.0556,8.7211,30,
122,1,7,2,370,0,319.6235,15.2778,76.9202,0,0,0,2,0,0,0,15.2778,7.8064,0.94438,-7.4714,30,
122,1,7,2,371,1,319.6585,285.5445,48.2585,2,3,1,2,1,0,0,285.5445,304.2305,0.63887,18.686,20,
122,1,7,2,372,1,106.2626,258.2717,15.3005,2,1,3,2,1,0,0,258.2717,245.3272,1.0763,-12.9445,20,
122,1,7,2,373,1,49.0672,258.9382,345.6216,3,2,1,3,1,0,0,345.6216,338.8483,0.76387,-6.7734,30,
122,1,7,2,374,1,166.1154,197.5488,18.9387,2,3,1,2,1,0,0,197.5488,202.477,0.73569,4.9282,30,
122,1,7,2,375,1,135.6449,196.0742,226.4641,2,1,3,2,1,0,0,196.0742,193.9849,1.0485,-2.0893,40,
122,1,7,2,376,0,258.7972,46.9971,227.8371,0,0,0,3,0,0,0,227.8371,228.1152,0.85411,0.27811,40,
122,1,7,2,377,1,19.3937,136.9647,106.2132,2,3,1,1,0,0,1,19.3937,58.4566,1.2153,39.0629,0,
122,1,7,2,378,1,198.1299,16.6345,346.5555,1,3,2,1,1,0,0,198.1299,193.0546,0.70844,-5.0753,30,
122,1,7,2,379,0,255.9533,317.2465,78.8433,0,0,0,2,0,0,0,317.2465,318.5946,1.1806,1.3481,40,
122,1,7,2,380,1,106.7368,288.8994,198.5417,2,1,3,2,1,0,0,288.8994,288.607,0.67354,-0.29246,40,
122,1,7,2,381,0,226.6913,289.8702,169.7739,0,0,0,3,0,0,0,169.7739,170.5499,1.2776,0.77605,40,
122,1,7,2,382,1,75.0635,45.6611,226.9403,2,3,1,3,0,1,0,226.9403,NaN,100000,999,0,
122,1,7,2,383,0,195.7207,48.1759,349.0121,0,0,0,1,0,0,0,195.7207,196.1896,0.86793,0.46889,40,
122,1,7,2,384,1,135.4763,286.2294,199.6733,3,1,2,1,0,1,0,135.4763,NaN,100000,999,0,
122,1,7,2,385,1,107.2227,346.6329,286.4365,3,2,1,1,0,0,1,107.2227,110.3342,0.85405,3.1114,30,
122,1,7,2,386,0,167.3073,257.9357,47.388,0,0,0,1,0,0,0,167.3073,160.2589,0.86802,-7.0484,30,
122,1,7,2,387,1,105.1816,45.943,347.8877,1,3,2,1,1,0,0,105.1816,113.634,0.74305,8.4523,30,
122,1,7,2,388,0,197.7527,139.9306,168.4489,0,0,0,2,0,0,0,139.9306,130.3842,1.0485,-9.5463,30,
122,1,7,2,389,0,106.463,49.1621,137.8526,0,0,0,3,0,0,0,137.8526,126.3028,1.354,-11.5498,30,
122,1,7,2,390,1,18.0356,289.7875,76.6533,2,1,3,2,1,0,0,289.7875,294.9219,0.95127,5.1344,30,
122,1,7,2,391,1,45.3576,315.0784,289.8684,3,2,1,3,1,0,0,289.8684,291.6588,0.61793,1.7904,40,
122,1,7,2,392,1,78.5901,105.9445,317.1697,3,1,2,2,0,0,1,105.9445,112.8977,0.99986,6.9532,30,
122,1,7,2,393,0,319.7139,18.3713,226.9283,0,0,0,2,0,0,0,18.3713,31.65,0.92356,13.2787,20,
122,1,7,2,394,1,196.9913,225.6865,319.7638,2,3,1,1,0,0,1,196.9913,203.3467,1.0971,6.3554,30,
122,1,7,2,395,1,75.4069,138.9374,255.872,1,2,3,3,0,0,1,255.872,236.6276,1.618,-19.2444,20,
122,1,7,2,396,1,347.3247,229.1204,79.3594,2,3,1,3,0,1,0,79.3594,NaN,100000,999,0,
122,1,7,2,397,1,199.4692,169.205,48.4164,1,2,3,1,1,0,0,199.4692,350.7235,1.3471,151.2542,0,
122,1,7,2,398,1,106.0224,15.3143,48.1119,3,2,1,3,1,0,0,48.1119,64.8737,0.93742,16.7618,20,
122,1,7,2,399,0,347.7221,289.2307,45.2035,0,0,0,2,0,0,0,289.2307,302.3066,0.95138,13.0759,20,
122,1,7,2,400,0,288.0459,259.8347,198.8666,0,0,0,3,0,0,0,198.8666,211.0609,1.0346,12.1943,20,
122,1,7,2,401,1,138.5923,169.9766,75.4185,3,1,2,3,1,0,0,75.4185,73.8533,0.81249,-1.5652,40,
122,1,7,2,402,0,138.4918,47.2984,315.7883,0,0,0,2,0,0,0,47.2984,40.1797,0.77072,-7.1187,30,
122,1,7,2,403,1,318.6274,135.6952,168.1628,1,3,2,1,1,0,0,318.6274,313.0892,1.1111,-5.5382,30,
122,1,7,2,404,1,198.2711,316.0916,345.5957,1,3,2,1,1,0,0,198.2711,208.494,0.81237,10.2229,30,
122,1,7,2,405,0,19.5455,197.2517,168.7432,0,0,0,2,0,0,0,197.2517,171.6132,1.104,-25.6385,10,
122,1,7,2,406,1,196.9978,48.2766,317.8342,2,3,1,3,0,1,0,317.8342,NaN,100000,999,0,
122,1,7,2,407,1,18.4428,258.0195,106.9348,2,3,1,1,0,0,1,18.4428,19.7003,1.4235,1.2575,40,
122,1,7,2,408,0,18.089,137.9711,318.3294,0,0,0,3,0,0,0,318.3294,307.0342,1.0069,-11.2952,30,
122,1,7,2,409,0,285.4329,319.6342,15.7424,0,0,0,3,0,0,0,15.7424,17.4671,1.6874,1.7247,40,
122,1,7,2,410,1,167.2618,137.6668,287.6333,3,2,1,3,1,0,0,287.6333,288.7123,0.68047,1.0789,40,
122,1,7,2,411,1,257.6176,76.6841,136.6619,2,1,3,1,0,1,0,257.6176,NaN,100000,999,0,
122,1,7,2,412,1,318.6127,255.6712,169.2655,2,1,3,2,1,0,0,255.6712,69.3951,0.84711,173.7239,0,
122,1,7,2,413,0,195.6399,167.3218,78.713,0,0,0,3,0,0,0,78.713,72.9215,1.0485,-5.7914,30,
122,1,7,2,414,0,255.0215,348.2625,136.8484,0,0,0,3,0,0,0,136.8484,313.2442,1.3194,176.3957,0,
122,1,7,2,415,1,169.2599,195.5886,108.2863,2,1,3,1,0,1,0,169.2599,NaN,100000,999,0,
122,1,7,2,416,0,108.0519,256.2399,137.5898,0,0,0,3,0,0,0,137.5898,116.3164,1.0763,-21.2733,10,
122,1,7,2,417,1,315.776,79.9704,137.2512,2,1,3,3,0,0,1,137.2512,136.0631,1.1458,-1.1881,40,
122,1,7,2,418,0,109.5576,45.6649,285.2108,0,0,0,1,0,0,0,109.5576,112.1938,0.81938,2.6362,40,
122,1,7,2,419,1,285.9982,227.6508,348.1368,1,2,3,1,1,0,0,285.9982,273.8557,0.99298,-12.1425,20,
122,1,7,2,420,1,285.1161,195.8806,349.3046,1,2,3,3,0,0,1,349.3046,358.5409,1.0902,9.2363,30,
122,1,8,2,421,0,139.1592,226.9724,75.4832,0,0,0,1,0,0,0,139.1592,108.1827,0.77083,-30.9765,0,
122,1,8,2,422,0,258.0006,19.9983,285.6459,0,0,0,3,0,0,0,285.6459,71.3543,0.84719,145.7085,0,
122,1,8,2,423,0,347.863,79.9688,136.8148,0,0,0,2,0,0,0,79.9688,57.7328,0.29161,-22.236,10,
122,1,8,2,424,0,138.8927,289.0539,347.4898,0,0,0,1,0,0,0,138.8927,177.7736,0.23612,38.8809,0,
122,1,8,2,425,1,139.122,45.8653,229.3182,2,3,1,2,1,0,0,45.8653,27.3121,0.66657,-18.5532,20,
122,1,8,2,426,1,138.0311,78.9619,49.1808,3,1,2,2,0,0,1,78.9619,84.5713,1.1875,5.6094,30,
122,1,8,2,427,0,46.1867,195.6983,256.1037,0,0,0,1,0,0,0,46.1867,65.707,1.0138,19.5203,20,
122,1,8,2,428,1,346.4768,289.5354,227.4644,2,1,3,2,1,0,0,289.5354,298.4353,0.68059,8.8999,30,
122,1,8,2,429,1,47.187,79.2999,15.0445,2,1,3,2,1,0,0,79.2999,97.7862,0.71529,18.4864,20,
122,1,8,2,430,1,79.2645,348.4328,109.7906,2,1,3,2,1,0,0,348.4328,350.0076,0.66668,1.5749,40,
122,1,8,2,431,1,166.9384,345.2837,198.4479,1,3,2,1,1,0,0,166.9384,165.8547,0.79866,-1.0837,40,
122,1,8,2,432,1,46.1005,196.179,169.0506,1,2,3,2,0,1,0,196.179,NaN,100000,999,0,
122,1,8,2,433,0,285.1488,259.3335,319.4721,0,0,0,1,0,0,0,285.1488,273.7512,0.90965,-11.3976,30,
122,1,8,2,434,1,315.0558,256.1726,168.5349,1,3,2,1,1,0,0,315.0558,290.5659,0.9583,-24.4899,10,
122,1,8,2,435,0,138.3282,106.1507,49.0244,0,0,0,3,0,0,0,49.0244,57.5562,0.90269,8.5318,30,
122,1,8,2,436,0,167.1549,138.8245,349.9823,0,0,0,3,0,0,0,349.9823,343.1981,1.0068,-6.7842,30,
122,1,8,2,437,1,107.9765,77.5306,228.882,1,2,3,2,0,1,0,77.5306,NaN,100000,999,0,
122,1,8,2,438,1,165.7078,228.0405,49.6531,2,1,3,1,0,1,0,165.7078,NaN,100000,999,0,
122,1,8,2,439,1,348.1345,49.685,316.5997,3,1,2,3,1,0,0,316.5997,322.8055,0.67354,6.2058,30,
122,1,8,2,440,1,75.7592,348.6651,45.1985,1,3,2,2,0,0,1,348.6651,1.8675,1.0276,13.2025,20,
122,1,8,2,441,0,166.6833,319.4168,46.6683,0,0,0,1,0,0,0,166.6833,160.9061,0.79857,-5.7773,30,
122,1,8,2,442,0,78.6986,197.224,109.252,0,0,0,2,0,0,0,197.224,58.1743,4.1664,-139.0497,0,
122,1,8,2,443,1,227.4811,166.4383,105.9151,2,3,1,2,1,0,0,166.4383,127.0065,0.59019,-39.4318,0,
122,1,8,2,444,0,226.7599,195.5008,288.965,0,0,0,3,0,0,0,288.965,263.6216,0.77773,-25.3434,10,
122,1,8,2,445,1,228.4323,319.7786,106.5395,3,1,2,3,1,0,0,106.5395,113.4883,1.0486,6.9487,30,
122,1,8,2,446,1,79.7326,317.4622,348.7411,2,1,3,2,1,0,0,317.4622,304.4922,0.65969,-12.97,20,
122,1,8,2,447,0,45.9115,197.797,18.1324,0,0,0,2,0,0,0,197.797,169.9908,1.25,-27.8061,10,
122,1,8,2,448,1,18.6621,168.1551,287.341,1,3,2,3,0,1,0,287.341,NaN,100000,999,0,
122,1,8,2,449,1,136.0884,285.0426,346.5031,3,1,2,3,1,0,0,346.5031,342.0138,1.1318,-4.4894,30,
122,1,8,2,450,1,315.1533,349.0435,225.2357,3,1,2,1,0,1,0,315.1533,NaN,100000,999,0,
122,1,8,2,451,1,138.6936,315.0693,168.3956,3,1,2,3,1,0,0,168.3956,158.0886,1.3194,-10.3071,30,
122,1,8,2,452,1,46.0342,105.1868,78.3168,1,3,2,1,1,0,0,46.0342,56.2145,1.6803,10.1803,30,
122,1,8,2,453,1,165.0947,45.9217,15.1337,3,1,2,3,1,0,0,15.1337,34.4141,1.0139,19.2804,20,
122,1,8,2,454,1,348.5217,318.8731,289.1133,2,1,3,1,0,1,0,348.5217,NaN,100000,999,0,
122,1,8,2,455,1,139.6704,47.9709,317.9655,1,2,3,1,1,0,0,139.6704,132.2554,0.7083,-7.4149,30,
122,1,8,2,456,1,286.0016,45.0729,168.8158,1,3,2,3,0,1,0,168.8158,NaN,100000,999,0,
122,1,8,2,457,0,195.2941,256.1198,15.8399,0,0,0,1,0,0,0,195.2941,213.7211,0.96524,18.4269,20,
122,1,8,2,458,1,138.5184,169.1855,258.6365,3,2,1,1,0,0,1,138.5184,131.7863,0.98591,-6.7321,30,
122,1,8,2,459,0,19.902,108.5641,259.1282,0,0,0,1,0,0,0,19.902,23.905,1.5138,4.0031,30,
122,1,8,2,460,1,108.5872,226.0126,318.2188,3,1,2,3,1,0,0,318.2188,333.3701,0.64574,15.1514,20,
122,1,8,2,461,0,19.6597,105.4666,288.6939,0,0,0,2,0,0,0,105.4666,121.3109,1.0347,15.8443,20,
122,1,8,2,462,1,109.9663,18.7877,196.3753,1,2,3,2,0,1,0,18.7877,NaN,100000,999,0,
122,1,8,2,463,0,139.1878,168.7421,197.9193,0,0,0,3,0,0,0,197.9193,208.4467,0.99995,10.5274,30,
122,1,8,2,464,0,136.7104,259.36,16.3401,0,0,0,1,0,0,0,136.7104,118.442,1.0416,-18.2685,20,
122,1,8,2,465,1,136.4382,79.6219,316.4924,2,1,3,2,1,0,0,79.6219,70.7682,0.56249,-8.8537,30,
122,1,8,2,466,1,196.6333,136.0981,167.5911,2,1,3,3,0,0,1,167.5911,183.2105,0.91663,15.6194,20,
122,1,8,2,467,1,226.3809,318.4812,259.4068,2,1,3,2,1,0,0,318.4812,319.5171,0.72218,1.0359,40,
122,1,8,2,468,1,18.9916,169.3163,138.9898,1,3,2,1,1,0,0,18.9916,36.8692,1.2845,17.8776,20,
122,1,8,2,469,1,15.3526,75.3001,108.3079,3,1,2,3,1,0,0,108.3079,100.7502,0.65967,-7.5577,30,
122,1,8,2,470,0,46.2786,346.8916,169.9687,0,0,0,1,0,0,0,46.2786,44.6197,1.0555,-1.6589,40,
122,1,8,2,471,1,345.2622,106.6171,78.9984,3,2,1,1,0,0,1,345.2622,338.5548,2.0485,-6.7074,30,
122,1,8,2,472,0,348.2674,166.2214,78.7896,0,0,0,3,0,0,0,78.7896,74.5157,1.4791,-4.2739,30,
122,1,8,2,473,1,106.559,257.9588,76.8881,1,3,2,1,1,0,0,106.559,96.252,0.97222,-10.307,30,
122,1,8,2,474,0,317.6116,229.0412,257.2379,0,0,0,3,0,0,0,257.2379,240.2883,0.90279,-16.9496,20,
122,1,8,2,475,0,287.5106,197.8513,19.2574,0,0,0,1,0,0,0,287.5106,283.5636,1.1806,-3.947,30,
122,1,8,2,476,1,227.7234,199.2796,318.2134,3,1,2,3,1,0,0,318.2134,332.978,0.55559,14.7645,20,
122,1,8,2,477,1,76.0947,286.1864,255.0432,2,3,1,2,1,0,0,286.1864,289.7454,0.97215,3.5591,30,
122,1,8,2,478,0,317.4562,198.8708,225.7391,0,0,0,3,0,0,0,225.7391,229.5215,1.0625,3.7825,30,
122,1,8,2,479,0,46.7157,195.3171,168.0624,0,0,0,1,0,0,0,46.7157,45.3873,1.1041,-1.3284,40,
122,1,8,2,480,1,285.5423,79.2688,319.5543,2,1,3,2,1,0,0,79.2688,66.3844,0.625,-12.8844,20,
