Subject,Session,Block,Condition,Trial,whetherCued,leftStim,rightStim,midStim,remCueLoc,fogCueLoc,neutralCueLoc,probeCueLoc,probeRem,probeForget,probeNeutral,Target,Estimate,RT,Error,Points
105,1,1,1,1,1,285.3167,75.3195,349.6993,2,3,1,2,1,0,0,75.3195,94.686,1.6663,19.3665,20,
105,1,1,1,2,0,317.7602,47.7922,225.3341,0,0,0,2,0,0,0,47.7922,84.1973,1.9226,36.4051,0,
105,1,1,1,3,1,345.9818,317.6386,285.7384,3,1,2,1,0,1,0,345.9818,347.4074,2.1943,1.4256,40,
105,1,1,1,4,1,15.6096,196.4513,135.3117,1,2,3,1,1,0,0,15.6096,11.7964,1.7707,-3.8132,30,
105,1,1,1,5,1,46.0894,18.765,77.5992,3,1,2,3,1,0,0,77.5992,64.8558,1.3957,-12.7434,20,
105,1,1,1,6,1,136.9584,228.1068,79.8258,1,2,3,1,1,0,0,136.9584,128.1118,1.8888,-8.8466,30,
105,1,1,1,7,0,289.1912,319.5068,107.2497,0,0,0,1,0,0,0,289.1912,298.3452,1.9443,9.154,30,
105,1,1,1,8,1,49.572,257.4728,198.5512,2,1,3,2,1,0,0,257.4728,263.5267,2.0692,6.0539,30,
105,1,1,1,9,0,165.1693,347.2055,255.6489,0,0,0,3,0,0,0,255.6489,241.7557,1.8401,-13.8932,20,
105,1,1,1,10,0,228.007,199.7351,258.1561,0,0,0,3,0,0,0,258.1561,223.1077,1.3679,-35.0484,0,
105,1,1,1,11,1,47.5178,139.5352,315.6181,2,3,1,3,0,1,0,315.6181,314.2954,1.1595,-1.3227,40,
105,1,1,1,12,1,48.1707,168.8863,199.4925,3,2,1,3,1,0,0,199.4925,204.9038,1.3262,5.4112,30,
105,1,1,1,13,1,45.8059,17.0895,196.8453,1,2,3,1,1,0,0,45.8059,35.3928,1.8609,-10.4131,30,
105,1,1,1,14,1,226.5243,18.8994,167.4361,2,1,3,2,1,0,0,18.8994,24.8529,1.9928,5.9535,30,
105,1,1,1,15,1,107.2871,288.6659,137.7912,3,2,1,2,0,1,0,288.6659,287.841,1.9511,-0.82482,40,
105,1,1,1,16,1,345.9916,285.1034,258.9614,2,3,1,1,0,0,1,345.9916,343.0561,2.6526,-2.9356,40,
105,1,1,1,17,0,17.4427,165.3267,137.2849,0,0,0,1,0,0,0,17.4427,19.0077,1.8397,1.565,40,
105,1,1,1,18,1,225.5959,45.6461,285.3898,2,1,3,2,1,0,0,45.6461,49.366,1.2846,3.7199,30,
105,1,1,1,19,0,345.5065,167.3447,108.5532,0,0,0,1,0,0,0,345.5065,337.5681,1.9581,-7.9385,30,
105,1,1,1,20,1,195.0114,49.7227,228.9624,1,3,2,1,1,0,0,195.0114,178.9006,2.7567,-16.1108,20,
105,1,1,1,21,1,318.2166,139.1068,106.8927,2,3,1,1,0,0,1,318.2166,336.0635,2.2289,17.8469,20,
105,1,1,1,22,0,18.1388,289.0957,195.9448,0,0,0,2,0,0,0,289.0957,303.0936,1.9373,13.998,20,
105,1,1,1,23,0,229.4223,166.7051,346.0256,0,0,0,1,0,0,0,229.4223,312.3215,1.7915,82.8992,0,
105,1,1,1,24,1,49.0602,75.163,347.0752,3,1,2,3,1,0,0,347.0752,334.4594,1.2707,-12.6158,20,
105,1,1,1,25,0,346.1367,139.5344,49.3449,0,0,0,3,0,0,0,49.3449,43.5339,1.2291,-5.8111,30,
105,1,1,1,26,1,77.8374,108.2883,348.4279,2,1,3,1,0,1,0,77.8374,73.4306,1.3887,-4.4068,30,
105,1,1,1,27,1,77.0033,256.8647,17.2163,1,3,2,1,1,0,0,77.0033,71.3366,1.5346,-5.6667,30,
105,1,1,1,28,1,288.4182,45.772,199.8716,2,1,3,3,0,0,1,199.8716,196.6665,1.4443,-3.205,30,
105,1,1,1,29,1,255.4666,286.0334,316.5138,1,2,3,2,0,1,0,286.0334,287.7637,1.8471,1.7303,40,
105,1,1,1,30,0,167.4432,225.3904,107.6503,0,0,0,3,0,0,0,107.6503,96.5504,2.326,-11.1,30,
105,1,1,1,31,0,348.6538,109.5044,167.3202,0,0,0,1,0,0,0,348.6538,356.1289,1.7983,7.4751,30,
105,1,1,1,32,1,255.7227,348.6468,197.4114,1,3,2,1,1,0,0,255.7227,241.9079,1.5062,-13.8148,20,
105,1,1,1,33,1,106.2995,48.3854,347.5991,1,2,3,3,0,0,1,347.5991,336.046,1.2568,-11.5532,30,
105,1,1,1,34,1,48.8653,16.9624,78.0265,1,3,2,1,1,0,0,48.8653,51.5911,1.3401,2.7258,40,
105,1,1,1,35,0,75.5347,288.3139,139.7729,0,0,0,3,0,0,0,139.7729,150.7088,3.4856,10.9359,30,
105,1,1,1,36,1,229.6057,109.4654,319.9859,1,3,2,3,0,1,0,319.9859,314.6598,2.1386,-5.3261,30,
105,1,1,1,37,1,259.233,18.9726,109.5014,3,1,2,3,1,0,0,109.5014,99.3593,1.8124,-10.1421,30,
105,1,1,1,38,0,256.0912,315.4982,168.0975,0,0,0,3,0,0,0,168.0975,159.1396,1.3263,-8.9579,30,
105,1,1,1,39,0,165.5577,17.8966,139.3519,0,0,0,2,0,0,0,17.8966,30.5049,2.625,12.6082,20,
105,1,1,1,40,1,139.5455,346.0382,196.9103,1,2,3,2,0,1,0,346.0382,358.3325,1.4373,12.2943,20,
105,1,1,1,41,1,226.8033,199.4036,348.7218,1,2,3,2,0,1,0,199.4036,175.682,3.194,-23.7216,10,
105,1,1,1,42,0,258.5107,76.1986,169.7974,0,0,0,3,0,0,0,169.7974,152.332,1.1805,-17.4655,20,
105,1,1,1,43,1,46.1226,316.3501,257.0922,1,2,3,1,1,0,0,46.1226,59.8431,1.5068,13.7205,20,
105,1,1,1,44,1,138.3904,287.1424,258.274,3,1,2,3,1,0,0,258.274,240.7831,1.8401,-17.4909,20,
105,1,1,1,45,0,286.8174,107.1734,348.438,0,0,0,2,0,0,0,107.1734,109.672,1.2775,2.4986,40,
105,1,1,1,46,1,15.6333,107.5663,138.5797,2,3,1,2,1,0,0,107.5663,115.0391,1.5202,7.4727,30,
105,1,1,1,47,1,257.6019,319.4264,18.2413,1,2,3,1,1,0,0,257.6019,243.3152,1.5345,-14.2867,20,
105,1,1,1,48,0,46.4256,137.6475,317.7992,0,0,0,1,0,0,0,46.4256,48.7328,1.7567,2.3073,40,
105,1,1,1,49,0,348.2232,319.9007,165.5086,0,0,0,2,0,0,0,319.9007,312.4902,2.8262,-7.4105,30,
105,1,1,1,50,1,49.2794,288.072,15.5871,3,1,2,3,1,0,0,15.5871,32.1511,1.4444,16.564,20,
105,1,1,1,51,1,315.4042,227.0562,48.5632,3,2,1,3,1,0,0,48.5632,52.5526,1.2152,3.9895,30,
105,1,1,1,52,0,258.014,17.9574,166.1263,0,0,0,1,0,0,0,258.014,231.3037,1.9859,-26.7103,10,
105,1,1,1,53,1,46.9871,225.5229,135.9693,3,2,1,3,1,0,0,135.9693,123.1666,1.6868,-12.8027,20,
105,1,1,1,54,1,316.1599,105.8405,255.1336,2,3,1,2,1,0,0,105.8405,183.355,1.5832,77.5144,0,
105,1,1,1,55,1,137.1783,255.6832,346.4986,3,1,2,3,1,0,0,346.4986,336.0955,1.2846,-10.4031,30,
105,1,1,1,56,1,226.1171,48.3665,259.0939,3,1,2,3,1,0,0,259.0939,120.6236,0.94445,-138.4703,0,
105,1,1,1,57,0,167.0201,195.2052,76.4691,0,0,0,3,0,0,0,76.4691,65.3324,1.0693,-11.1368,30,
105,1,1,1,58,1,17.6756,106.6678,139.2734,3,1,2,1,0,1,0,17.6756,13.0301,1.8261,-4.6455,30,
105,1,1,1,59,1,168.6383,19.2866,139.9592,3,1,2,2,0,0,1,19.2866,55.7349,1.3679,36.4482,0,
105,1,1,1,60,0,109.1686,49.0772,256.6198,0,0,0,2,0,0,0,49.0772,31.9024,1.1185,-17.1749,20,
105,1,2,1,61,1,135.2687,168.1844,109.8019,2,1,3,2,1,0,0,168.1844,131.8958,1.409,-36.2886,0,
105,1,2,1,62,1,198.5914,169.7232,105.4389,3,1,2,3,1,0,0,105.4389,106.6087,1.2985,1.1697,40,
105,1,2,1,63,1,166.5304,259.8329,315.6497,1,3,2,2,0,0,1,259.8329,255.6096,1.7775,-4.2233,30,
105,1,2,1,64,1,348.519,288.9045,17.8242,1,3,2,1,1,0,0,348.519,352.8262,2.0136,4.3072,30,
105,1,2,1,65,1,47.4122,17.1561,228.4941,3,1,2,3,1,0,0,228.4941,235.2111,1.84,6.717,30,
105,1,2,1,66,1,48.834,319.4916,78.8341,2,3,1,2,1,0,0,319.4916,344.5023,1.048,25.0106,10,
105,1,2,1,67,0,259.652,137.2348,49.1694,0,0,0,3,0,0,0,49.1694,60.7915,2.3191,11.6221,30,
105,1,2,1,68,0,77.4526,227.0373,345.4197,0,0,0,2,0,0,0,227.0373,230.9277,2.8815,3.8905,30,
105,1,2,1,69,0,107.4171,288.4239,317.4001,0,0,0,3,0,0,0,317.4001,298.1654,2.1178,-19.2347,20,
105,1,2,1,70,0,106.8887,256.3605,45.6265,0,0,0,1,0,0,0,106.8887,94.004,4.9854,-12.8848,20,
105,1,2,1,71,1,76.054,256.3269,109.9659,2,1,3,2,1,0,0,256.3269,81.1417,2.0691,-175.1852,0,
105,1,2,1,72,1,256.552,16.7177,75.3811,1,2,3,3,0,0,1,75.3811,57.1742,2.3886,-18.207,20,
105,1,2,1,73,1,107.8588,347.9646,138.4931,3,2,1,1,0,0,1,107.8588,111.2496,1.472,3.3908,30,
105,1,2,1,74,0,137.135,109.5651,19.4866,0,0,0,2,0,0,0,109.5651,114.148,4.2911,4.5829,30,
105,1,2,1,75,1,286.221,47.191,168.6755,2,3,1,2,1,0,0,47.191,68.9562,1.7151,21.7652,10,
105,1,2,1,76,0,318.3402,105.7629,255.3135,0,0,0,1,0,0,0,318.3402,313.3934,1.7012,-4.9468,30,
105,1,2,1,77,0,106.6075,289.4992,167.7106,0,0,0,2,0,0,0,289.4992,306.123,2.576,16.6238,20,
105,1,2,1,78,1,316.3664,228.7335,77.4394,2,3,1,2,1,0,0,228.7335,215.2315,1.472,-13.502,20,
105,1,2,1,79,0,108.9941,167.0244,137.4118,0,0,0,3,0,0,0,137.4118,121.8485,3.2288,-15.5634,20,
105,1,2,1,80,1,228.6191,18.284,77.5739,3,1,2,1,0,1,0,228.6191,253.3586,1.7423,24.7395,10,
105,1,2,1,81,1,349.2665,317.3364,49.1836,3,2,1,3,1,0,0,49.1836,53.0109,1.4581,3.8273,30,
105,1,2,1,82,1,317.5743,19.9949,76.8866,3,1,2,3,1,0,0,76.8866,67.3839,1.9997,-9.5027,30,
105,1,2,1,83,0,106.4416,15.825,77.2793,0,0,0,1,0,0,0,106.4416,105.7942,1.104,-0.64736,40,
105,1,2,1,84,1,46.3343,225.3428,16.568,2,3,1,1,0,0,1,46.3343,39.9506,1.4025,-6.3837,30,
105,1,2,1,85,0,106.3698,138.2755,77.0353,0,0,0,1,0,0,0,106.3698,98.6267,1.1179,-7.7431,30,
105,1,2,1,86,1,229.4564,256.0814,18.4177,3,2,1,3,1,0,0,18.4177,15.8035,1.0069,-2.6142,40,
105,1,2,1,87,0,47.0084,136.669,256.3379,0,0,0,3,0,0,0,256.3379,242.256,2.792,-14.0819,20,
105,1,2,1,88,0,165.9694,259.0404,49.9282,0,0,0,3,0,0,0,49.9282,39.3357,1.2984,-10.5925,30,
105,1,2,1,89,0,286.3771,227.098,17.985,0,0,0,2,0,0,0,227.098,223.1995,2.2287,-3.8986,30,
105,1,2,1,90,1,165.3123,15.8923,106.6913,3,2,1,3,1,0,0,106.6913,110.0615,1.7846,3.3702,30,
105,1,2,1,91,0,47.5111,168.683,225.5606,0,0,0,1,0,0,0,47.5111,37.3258,2.0345,-10.1853,30,
105,1,2,1,92,1,76.4371,229.5997,165.0303,1,3,2,1,1,0,0,76.4371,66.2838,1.3331,-10.1532,30,
105,1,2,1,93,1,105.6268,287.1495,255.0818,1,3,2,1,1,0,0,105.6268,95.9598,1.0763,-9.667,30,
105,1,2,1,94,0,226.0151,18.975,199.8729,0,0,0,2,0,0,0,18.975,30.4211,1.3332,11.4461,30,
105,1,2,1,95,1,257.4089,287.2294,198.9909,2,3,1,2,1,0,0,287.2294,305.9834,1.4299,18.754,20,
105,1,2,1,96,1,345.3147,139.6001,199.5308,2,3,1,1,0,0,1,345.3147,320.9236,1.2568,-24.3911,10,
105,1,2,1,97,0,257.2098,349.198,168.0913,0,0,0,3,0,0,0,168.0913,140.3955,1.1805,-27.6958,10,
105,1,2,1,98,1,285.0765,318.7534,75.3106,3,2,1,3,1,0,0,75.3106,73.3592,1.2638,-1.9514,40,
105,1,2,1,99,1,196.6344,135.5152,166.8521,1,2,3,1,1,0,0,196.6344,249.3406,2.1803,52.7061,0,
105,1,2,1,100,0,256.9666,17.1023,225.6856,0,0,0,3,0,0,0,225.6856,208.0775,1.5206,-17.6081,20,
105,1,2,1,101,1,48.808,348.2557,16.7554,2,1,3,3,0,0,1,16.7554,13.5577,1.847,-3.1978,30,
105,1,2,1,102,1,196.7117,317.8315,258.2726,2,1,3,2,1,0,0,317.8315,341.1819,1.111,23.3504,10,
105,1,2,1,103,0,109.5259,166.3226,229.7491,0,0,0,2,0,0,0,166.3226,147.8115,1.2152,-18.5111,20,
105,1,2,1,104,0,49.6735,226.8027,199.7386,0,0,0,1,0,0,0,49.6735,31.4216,4.7146,-18.2519,20,
105,1,2,1,105,0,17.5412,259.2672,48.419,0,0,0,2,0,0,0,259.2672,275.2074,1.6526,15.9403,20,
105,1,2,1,106,1,76.3878,165.5043,317.4946,1,3,2,1,1,0,0,76.3878,60.8343,1.1943,-15.5535,20,
105,1,2,1,107,0,317.5248,288.6106,258.8055,0,0,0,2,0,0,0,288.6106,157.9115,1.1456,-130.699,0,
105,1,2,1,108,0,225.586,76.8997,48.8242,0,0,0,2,0,0,0,76.8997,78.3282,1.0485,1.4285,40,
105,1,2,1,109,0,105.5768,227.506,289.0846,0,0,0,1,0,0,0,105.5768,114.9303,1.3471,9.3535,30,
105,1,2,1,110,1,77.625,287.6556,349.3669,1,2,3,1,1,0,0,77.625,88.2618,1.0555,10.6368,30,
105,1,2,1,111,1,48.7756,137.6306,169.2506,2,1,3,1,0,1,0,48.7756,42.0595,1.229,-6.7161,30,
105,1,2,1,112,1,196.7002,228.3195,48.6368,2,1,3,2,1,0,0,228.3195,219.9728,1.5971,-8.3467,30,
105,1,2,1,113,0,15.5643,198.2512,75.9544,0,0,0,1,0,0,0,15.5643,36.1623,3.4995,20.5979,20,
105,1,2,1,114,0,228.9358,345.9675,77.6546,0,0,0,3,0,0,0,77.6546,61.1947,1.3333,-16.46,20,
105,1,2,1,115,0,258.7655,168.5152,106.2331,0,0,0,3,0,0,0,106.2331,99.3901,1.4165,-6.843,30,
105,1,2,1,116,0,15.5148,79.4181,107.6112,0,0,0,1,0,0,0,15.5148,38.6977,1.5346,23.1829,10,
105,1,2,1,117,1,109.1522,198.3681,315.6973,2,3,1,2,1,0,0,198.3681,187.2256,1.597,-11.1425,30,
105,1,2,1,118,0,256.5109,226.4726,136.2991,0,0,0,2,0,0,0,226.4726,226.8415,1.8048,0.36883,40,
105,1,2,1,119,0,285.2877,135.1063,76.449,0,0,0,2,0,0,0,135.1063,134.4559,1.8609,-0.65045,40,
105,1,2,1,120,1,346.9215,226.6007,256.9667,2,1,3,2,1,0,0,226.6007,228.0227,2.2914,1.4219,40,
105,1,3,2,121,0,259.1155,19.3721,79.9918,0,0,0,3,0,0,0,79.9918,79.7446,1.7498,-0.24722,40,
105,1,3,2,122,1,228.6716,19.9273,318.4939,1,2,3,2,0,1,0,19.9273,NaN,100000,999,0,
105,1,3,2,123,0,16.7771,137.1919,319.5439,0,0,0,3,0,0,0,319.5439,334.8139,2.0483,15.27,20,
105,1,3,2,124,0,196.9012,286.0929,108.6133,0,0,0,2,0,0,0,286.0929,290.68,2.1664,4.5871,30,
105,1,3,2,125,1,195.0869,317.356,255.2304,2,1,3,2,1,0,0,317.356,299.641,1.7706,-17.715,20,
105,1,3,2,126,1,137.7151,286.7856,48.308,1,3,2,1,1,0,0,137.7151,131.9152,1.8261,-5.7999,30,
105,1,3,2,127,1,46.9945,226.2444,289.6767,3,2,1,3,1,0,0,289.6767,300.3922,1.0971,10.7155,30,
105,1,3,2,128,0,168.1491,257.3251,135.5459,0,0,0,2,0,0,0,257.3251,242.11,2.0693,-15.2151,20,
105,1,3,2,129,1,289.1691,198.0293,47.5896,2,3,1,2,1,0,0,198.0293,194.6236,1.5555,-3.4057,30,
105,1,3,2,130,1,285.1747,348.8566,257.7026,3,1,2,2,0,0,1,348.8566,350.3612,1.7498,1.5046,40,
105,1,3,2,131,0,199.1453,256.9438,225.8421,0,0,0,2,0,0,0,256.9438,264.7749,1.6178,7.8311,30,
105,1,3,2,132,1,317.7223,195.411,107.9906,2,1,3,2,1,0,0,195.411,174.7344,1.9858,-20.6767,20,
105,1,3,2,133,1,18.1363,286.0297,259.9009,1,3,2,2,0,0,1,286.0297,298.1603,2.8192,12.1306,20,
105,1,3,2,134,1,136.3179,105.8739,316.8431,3,2,1,2,0,1,0,105.8739,NaN,100000,999,0,
105,1,3,2,135,0,136.8066,257.35,315.2939,0,0,0,3,0,0,0,315.2939,327.8728,1.9721,12.5789,20,
105,1,3,2,136,0,135.5589,287.4592,77.3078,0,0,0,1,0,0,0,135.5589,52.3866,1.8054,-83.1723,0,
105,1,3,2,137,0,77.4983,227.9224,259.6238,0,0,0,3,0,0,0,259.6238,255.6601,1.3193,-3.9637,30,
105,1,3,2,138,1,135.4817,15.6564,288.0495,1,3,2,1,1,0,0,135.4817,124.6234,1.6665,-10.8583,30,
105,1,3,2,139,1,165.5533,138.2034,195.3601,3,1,2,3,1,0,0,195.3601,197.2023,0.88878,1.8422,40,
105,1,3,2,140,0,226.3889,105.4855,258.9141,0,0,0,1,0,0,0,226.3889,238.1627,1.3887,11.7739,30,
105,1,3,2,141,1,316.1998,229.638,138.8149,2,1,3,3,0,0,1,138.8149,119.7206,1.3817,-19.0943,20,
105,1,3,2,142,1,228.7839,289.0142,349.0156,3,2,1,2,0,1,0,289.0142,NaN,100000,999,0,
105,1,3,2,143,1,47.9719,285.7687,315.3131,2,1,3,3,0,0,1,315.3131,154.5438,1.7845,-160.7693,0,
105,1,3,2,144,1,15.9456,345.3543,285.1893,1,2,3,1,1,0,0,15.9456,35.8208,1.3053,19.8752,20,
105,1,3,2,145,0,257.1512,169.3563,318.5363,0,0,0,2,0,0,0,169.3563,160.7936,1.6253,-8.5627,30,
105,1,3,2,146,1,15.2378,49.0018,227.3339,1,3,2,1,1,0,0,15.2378,354.5312,1.4582,-20.7066,20,
105,1,3,2,147,0,316.2021,46.0129,226.7411,0,0,0,1,0,0,0,316.2021,309.6363,1.8124,-6.5658,30,
105,1,3,2,148,1,45.168,78.0781,195.5609,2,3,1,2,1,0,0,78.0781,84.1647,0.9097,6.0866,30,
105,1,3,2,149,1,79.0614,18.3341,46.9089,2,1,3,2,1,0,0,18.3341,4.9324,1.7151,-13.4017,20,
105,1,3,2,150,1,75.1898,319.612,256.8657,3,1,2,1,0,1,0,75.1898,NaN,100000,999,0,
105,1,3,2,151,1,105.108,136.7051,196.922,2,3,1,2,1,0,0,136.7051,135.8927,1.3817,-0.81234,40,
105,1,3,2,152,1,195.0824,15.7627,109.4977,1,2,3,1,1,0,0,195.0824,211.4217,0.97206,16.3393,20,
105,1,3,2,153,1,49.6062,18.9082,286.2096,2,1,3,2,1,0,0,18.9082,13.3106,0.88872,-5.5976,30,
105,1,3,2,154,0,347.6564,78.106,46.4017,0,0,0,2,0,0,0,78.106,58.9726,1.3956,-19.1333,20,
105,1,3,2,155,0,288.4209,108.74,16.9582,0,0,0,3,0,0,0,16.9582,32.1489,1.6317,15.1907,20,
105,1,3,2,156,1,198.8892,137.8473,165.1055,3,2,1,3,1,0,0,165.1055,156.7174,1.1388,-8.3881,30,
105,1,3,2,157,0,75.1113,106.5056,346.4903,0,0,0,3,0,0,0,346.4903,349.0749,1.6942,2.5846,40,
105,1,3,2,158,1,165.0545,49.0987,195.1713,3,2,1,3,1,0,0,195.1713,181.7981,2.0275,-13.3732,20,
105,1,3,2,159,1,109.1325,285.0534,255.4778,3,2,1,3,1,0,0,255.4778,232.3314,0.86101,-23.1464,10,
105,1,3,2,160,0,285.6432,316.1039,257.2678,0,0,0,3,0,0,0,257.2678,260.4195,0.84722,3.1517,30,
105,1,3,2,161,1,106.1674,46.4605,138.3688,2,1,3,2,1,0,0,46.4605,50.1337,0.83324,3.6732,30,
105,1,3,2,162,1,318.877,196.767,139.1947,3,2,1,3,1,0,0,139.1947,136.7687,1.2572,-2.4261,40,
105,1,3,2,163,1,317.6756,17.5867,76.2786,1,3,2,3,0,1,0,76.2786,NaN,100000,999,0,
105,1,3,2,164,1,79.5412,286.426,255.6635,3,1,2,3,1,0,0,255.6635,234.6973,1.111,-20.9662,20,
105,1,3,2,165,1,19.3541,226.667,47.3152,2,1,3,2,1,0,0,226.667,230.0656,1.8122,3.3986,30,
105,1,3,2,166,1,347.7523,287.8153,316.523,3,2,1,3,1,0,0,316.523,354.9252,0.84716,38.4022,0,
105,1,3,2,167,1,288.0835,346.0155,108.388,3,2,1,3,1,0,0,108.388,111.4358,1.243,3.0478,30,
105,1,3,2,168,1,228.9714,17.4431,165.6529,2,1,3,2,1,0,0,17.4431,15.066,0.97208,-2.3771,40,
105,1,3,2,169,1,197.16,259.6526,137.5394,1,3,2,1,1,0,0,197.16,199.9734,1.3957,2.8134,40,
105,1,3,2,170,1,286.7386,18.3336,197.2723,2,3,1,2,1,0,0,18.3336,32.109,0.95079,13.7754,20,
105,1,3,2,171,0,45.0451,345.8454,256.0319,0,0,0,3,0,0,0,256.0319,242.769,1.6873,-13.263,20,
105,1,3,2,172,1,76.3501,257.4088,286.1034,3,2,1,3,1,0,0,286.1034,288.6789,1.1179,2.5755,40,
105,1,3,2,173,1,348.0693,226.4195,287.5407,2,3,1,2,1,0,0,226.4195,244.2575,1.5067,17.838,20,
105,1,3,2,174,1,47.3497,198.9559,107.0938,3,1,2,3,1,0,0,107.0938,82.3945,1.4305,-24.6994,10,
105,1,3,2,175,1,139.5776,257.6101,315.2598,3,1,2,1,0,1,0,139.5776,NaN,100000,999,0,
105,1,3,2,176,1,317.2746,198.2531,169.5221,3,1,2,1,0,1,0,317.2746,NaN,100000,999,0,
105,1,3,2,177,1,78.0946,289.8516,108.346,2,1,3,2,1,0,0,289.8516,283.6188,2.097,-6.2328,30,
105,1,3,2,178,0,77.5057,315.7093,347.0319,0,0,0,2,0,0,0,315.7093,313.7149,1.8609,-1.9945,40,
105,1,3,2,179,1,169.1646,347.5077,255.5137,1,3,2,1,1,0,0,169.1646,167.2886,1.0068,-1.876,40,
105,1,3,2,180,0,315.7681,196.5423,75.6546,0,0,0,3,0,0,0,75.6546,68.1275,2.4998,-7.5271,30,
105,1,4,2,181,0,168.0693,198.2604,318.0067,0,0,0,1,0,0,0,168.0693,155.0313,1.2423,-13.0381,20,
105,1,4,2,182,0,226.9859,346.3891,136.8093,0,0,0,2,0,0,0,346.3891,332.694,1.3957,-13.6951,20,
105,1,4,2,183,1,108.2279,77.5562,318.3105,2,1,3,2,1,0,0,77.5562,85.8587,0.94436,8.3025,30,
105,1,4,2,184,1,226.3128,75.3932,316.1006,2,3,1,3,0,1,0,316.1006,NaN,100000,999,0,
105,1,4,2,185,1,225.0231,195.9423,138.8982,2,1,3,2,1,0,0,195.9423,189.4477,1.4582,-6.4946,30,
105,1,4,2,186,1,288.3429,137.1089,198.5138,1,3,2,1,1,0,0,288.3429,300.9175,1.3679,12.5746,20,
105,1,4,2,187,0,346.2418,138.6184,227.1619,0,0,0,1,0,0,0,346.2418,5.7577,2.6803,19.5159,20,
105,1,4,2,188,1,136.522,316.7142,48.2967,2,1,3,1,0,1,0,136.522,NaN,100000,999,0,
105,1,4,2,189,0,18.38,319.3721,136.6547,0,0,0,2,0,0,0,319.3721,313.8569,1.5763,-5.5152,30,
105,1,4,2,190,1,345.7102,136.0875,288.8873,2,1,3,2,1,0,0,136.0875,127.4787,1.472,-8.6088,30,
105,1,4,2,191,1,46.6209,345.8303,319.9904,2,3,1,3,0,1,0,319.9904,NaN,100000,999,0,
105,1,4,2,192,0,227.2501,195.8128,168.8246,0,0,0,2,0,0,0,195.8128,176.1885,1.479,-19.6242,20,
105,1,4,2,193,0,137.7538,45.1055,348.6839,0,0,0,2,0,0,0,45.1055,97.5556,3.3191,52.4501,0,
105,1,4,2,194,0,225.8808,76.1622,348.5751,0,0,0,1,0,0,0,225.8808,233.6545,1.4721,7.7737,30,
105,1,4,2,195,1,165.3812,286.8469,259.0312,3,2,1,3,1,0,0,259.0312,254.493,1.4374,-4.5382,30,
105,1,4,2,196,1,285.8175,136.6198,319.0451,1,3,2,1,1,0,0,285.8175,250.4212,0.90971,-35.3963,0,
105,1,4,2,197,1,256.5306,136.4539,17.1526,3,1,2,1,0,1,0,256.5306,NaN,100000,999,0,
105,1,4,2,198,1,168.5928,137.1222,46.2418,3,1,2,3,1,0,0,46.2418,50.2853,1.0902,4.0435,30,
105,1,4,2,199,0,109.2626,289.9196,255.2693,0,0,0,1,0,0,0,109.2626,106.7435,1.3681,-2.5192,40,
105,1,4,2,200,1,136.6332,196.8498,317.464,3,1,2,2,0,0,1,196.8498,213.9403,1.5345,17.0905,20,
105,1,4,2,201,0,15.2638,49.8001,228.361,0,0,0,1,0,0,0,15.2638,12.8508,1.5831,-2.413,40,
105,1,4,2,202,0,169.6403,19.403,288.0954,0,0,0,2,0,0,0,19.403,28.4713,1.4096,9.0682,30,
105,1,4,2,203,0,107.8175,135.7213,349.2803,0,0,0,1,0,0,0,107.8175,110.4626,2.0969,2.6452,40,
105,1,4,2,204,0,17.5607,137.5771,197.3447,0,0,0,3,0,0,0,197.3447,189.624,1.5901,-7.7207,30,
105,1,4,2,205,1,15.3174,137.9558,49.4988,2,3,1,1,0,0,1,15.3174,16.5248,1.3679,1.2074,40,
105,1,4,2,206,1,257.6961,289.6863,136.2781,2,3,1,2,1,0,0,289.6863,286.0321,1.0832,-3.6542,30,
105,1,4,2,207,0,228.2249,256.091,138.4745,0,0,0,3,0,0,0,138.4745,130.1717,2.0763,-8.3029,30,
105,1,4,2,208,1,19.1114,286.5951,318.2852,1,3,2,1,1,0,0,19.1114,35.4976,1.5693,16.3862,20,
105,1,4,2,209,1,108.1345,49.2601,77.4513,2,1,3,2,1,0,0,49.2601,46.6116,0.84019,-2.6485,40,
105,1,4,2,210,1,18.7848,106.6625,229.4028,1,3,2,1,1,0,0,18.7848,22.1179,1.1804,3.3331,30,
105,1,4,2,211,1,108.9877,198.9369,255.4779,2,3,1,2,1,0,0,198.9369,211.1877,1.2985,12.2508,20,
105,1,4,2,212,1,287.6485,16.1093,108.7409,2,1,3,2,1,0,0,16.1093,14.2797,0.99984,-1.8297,40,
105,1,4,2,213,1,105.0812,136.0001,199.2925,3,2,1,1,0,0,1,105.0812,101.5359,1.9859,-3.5453,30,
105,1,4,2,214,0,15.0584,198.6422,47.0765,0,0,0,3,0,0,0,47.0765,44.2647,1.9026,-2.8118,40,
105,1,4,2,215,0,79.6144,317.3332,16.8441,0,0,0,3,0,0,0,16.8441,29.6404,1.1184,12.7963,20,
105,1,4,2,216,0,46.5986,198.3553,347.6198,0,0,0,2,0,0,0,198.3553,225.8394,1.5831,27.4841,10,
105,1,4,2,217,0,75.0974,348.0374,167.694,0,0,0,2,0,0,0,348.0374,343.0206,1.2221,-5.0168,30,
105,1,4,2,218,0,229.3881,318.0286,348.2341,0,0,0,1,0,0,0,229.3881,238.4594,1.3887,9.0713,30,
105,1,4,2,219,1,255.3654,18.7902,135.2536,3,2,1,1,0,0,1,255.3654,240.032,2.1247,-15.3335,20,
105,1,4,2,220,0,319.0146,258.651,168.9736,0,0,0,3,0,0,0,168.9736,157.5467,1.2986,-11.4269,30,
105,1,4,2,221,1,316.7372,75.6977,286.0812,2,1,3,2,1,0,0,75.6977,73.491,0.88183,-2.2067,40,
105,1,4,2,222,0,45.1275,316.1684,259.8939,0,0,0,1,0,0,0,45.1275,53.6882,1.4512,8.5607,30,
105,1,4,2,223,1,75.7855,108.128,139.6292,1,3,2,2,0,0,1,108.128,107.395,3.1459,-0.73302,40,
105,1,4,2,224,1,196.5227,258.358,346.0222,3,1,2,3,1,0,0,346.0222,344.6733,1.0138,-1.3489,40,
105,1,4,2,225,1,48.9004,168.5124,227.1034,1,2,3,1,1,0,0,48.9004,58.778,1.4372,9.8776,30,
105,1,4,2,226,1,317.9409,46.2309,196.9919,3,1,2,3,1,0,0,196.9919,208.1618,1.6943,11.1699,30,
105,1,4,2,227,1,225.3126,345.1289,316.6706,1,3,2,1,1,0,0,225.3126,235.1925,1.5971,9.8799,30,
105,1,4,2,228,0,286.9961,135.3096,166.4648,0,0,0,3,0,0,0,166.4648,158.4869,1.7151,-7.9779,30,
105,1,4,2,229,0,229.791,79.0882,287.1195,0,0,0,2,0,0,0,79.0882,87.0113,1.2012,7.9231,30,
105,1,4,2,230,1,256.2072,168.4799,195.0763,2,1,3,1,0,1,0,256.2072,NaN,100000,999,0,
105,1,4,2,231,1,315.0164,255.2243,165.9456,2,3,1,2,1,0,0,255.2243,256.5904,1.4865,1.3661,40,
105,1,4,2,232,1,346.3173,229.9929,18.5527,2,3,1,2,1,0,0,229.9929,246.1903,1.8748,16.1974,20,
105,1,4,2,233,0,196.3801,76.5574,288.3328,0,0,0,1,0,0,0,196.3801,194.4628,1.4512,-1.9173,40,
105,1,4,2,234,1,137.227,347.3276,318.6834,2,3,1,3,0,1,0,318.6834,NaN,100000,999,0,
105,1,4,2,235,1,109.2114,78.9399,257.6819,1,3,2,1,1,0,0,109.2114,103.5535,1.6318,-5.6579,30,
105,1,4,2,236,1,19.2867,228.0358,255.9856,1,2,3,1,1,0,0,19.2867,17.4384,1.5068,-1.8482,40,
105,1,4,2,237,1,139.962,18.3997,349.6745,3,1,2,1,0,1,0,139.962,NaN,100000,999,0,
105,1,4,2,238,1,106.4416,225.9318,259.7367,3,2,1,2,0,1,0,225.9318,NaN,100000,999,0,
105,1,4,2,239,1,108.8845,315.6691,48.501,1,2,3,1,1,0,0,108.8845,110.3498,1.3679,1.4653,40,
105,1,4,2,240,0,76.7845,165.5625,256.2754,0,0,0,3,0,0,0,256.2754,240.879,1.4239,-15.3964,20,
105,1,5,2,241,1,228.2911,16.305,196.4227,1,3,2,2,0,0,1,16.305,19.8016,1.2013,3.4966,30,
105,1,5,2,242,0,227.3688,79.2558,19.6459,0,0,0,3,0,0,0,19.6459,27.6484,1.8054,8.0024,30,
105,1,5,2,243,1,16.426,259.5793,288.3534,2,3,1,1,0,0,1,16.426,7.1493,1.8748,-9.2767,30,
105,1,5,2,244,0,229.6716,108.9759,77.2713,0,0,0,2,0,0,0,108.9759,107.3169,0.97218,-1.659,40,
105,1,5,2,245,1,259.5596,136.7567,46.8618,3,2,1,3,1,0,0,46.8618,56.8236,1.0554,9.9617,30,
105,1,5,2,246,0,228.1282,15.9025,195.1504,0,0,0,1,0,0,0,228.1282,233.7648,1.347,5.6365,30,
105,1,5,2,247,1,259.7368,16.5834,137.8908,1,2,3,2,0,1,0,16.5834,NaN,100000,999,0,
105,1,5,2,248,1,199.7466,319.7965,19.9497,3,1,2,2,0,0,1,319.7965,325.0083,1.132,5.2118,30,
105,1,5,2,249,1,199.978,259.3475,169.7395,3,1,2,3,1,0,0,169.7395,161.9733,1.2777,-7.7662,30,
105,1,5,2,250,1,49.2368,226.2849,286.886,2,1,3,2,1,0,0,226.2849,226.9307,1.5553,0.64581,40,
105,1,5,2,251,1,78.4787,138.4745,289.2668,3,2,1,3,1,0,0,289.2668,286.7887,1.0832,-2.4781,40,
105,1,5,2,252,1,285.1528,317.72,19.1175,1,2,3,1,1,0,0,285.1528,287.5732,1.4722,2.4205,40,
105,1,5,2,253,1,75.3009,349.3086,225.3544,2,1,3,2,1,0,0,349.3086,338.4215,1.0834,-10.8871,30,
105,1,5,2,254,0,135.38,105.1417,197.1675,0,0,0,1,0,0,0,135.38,130.7597,1.1457,-4.6203,30,
105,1,5,2,255,0,79.8943,108.3037,19.2312,0,0,0,1,0,0,0,79.8943,66.8301,1.5553,-13.0643,20,
105,1,5,2,256,1,76.2625,197.1947,17.9359,1,3,2,1,1,0,0,76.2625,71.4283,0.98552,-4.8342,30,
105,1,5,2,257,1,285.1975,227.1738,165.8719,1,3,2,2,0,0,1,227.1738,239.1052,1.9304,11.9314,30,
105,1,5,2,258,0,139.4511,49.6629,195.6468,0,0,0,2,0,0,0,49.6629,209.4832,3.8329,159.8203,0,
105,1,5,2,259,1,225.566,315.3581,197.9051,3,2,1,3,1,0,0,197.9051,209.2014,0.95817,11.2964,30,
105,1,5,2,260,1,19.5103,78.3466,135.8569,3,1,2,3,1,0,0,135.8569,139.2185,0.90959,3.3616,30,
105,1,5,2,261,1,76.506,47.9148,285.5384,3,2,1,3,1,0,0,285.5384,120.6471,0.87489,-164.8913,0,
105,1,5,2,262,0,108.7769,168.2008,346.5331,0,0,0,2,0,0,0,168.2008,153.8184,1.3818,-14.3824,20,
105,1,5,2,263,0,16.8902,109.4934,138.9438,0,0,0,3,0,0,0,138.9438,127.3684,1.1179,-11.5754,30,
105,1,5,2,264,1,78.1704,347.7574,258.8614,1,3,2,3,0,1,0,258.8614,NaN,100000,999,0,
105,1,5,2,265,0,258.6754,49.5882,15.153,0,0,0,3,0,0,0,15.153,13.0471,1.2567,-2.1059,40,
105,1,5,2,266,0,139.4723,165.3628,108.1772,0,0,0,1,0,0,0,139.4723,136.6434,1.229,-2.829,40,
105,1,5,2,267,0,287.6335,48.4547,345.2733,0,0,0,1,0,0,0,287.6335,278.6171,1.2429,-9.0164,30,
105,1,5,2,268,1,79.5617,109.5881,228.0927,2,3,1,2,1,0,0,109.5881,116.2903,0.97901,6.7021,30,
105,1,5,2,269,1,256.2028,226.4117,78.9937,1,2,3,2,0,1,0,226.4117,NaN,100000,999,0,
105,1,5,2,270,1,195.7787,347.0457,228.4683,2,3,1,1,0,0,1,195.7787,236.6698,1.2568,40.891,0,
105,1,5,2,271,1,196.4051,228.0945,166.1022,2,3,1,1,0,0,1,196.4051,197.6742,1.3054,1.2691,40,
105,1,5,2,272,0,106.9624,45.3351,198.8926,0,0,0,2,0,0,0,45.3351,73.7883,0.94433,28.4532,10,
105,1,5,2,273,1,319.0539,287.8236,165.2784,3,2,1,3,1,0,0,165.2784,161.0173,1.5344,-4.2611,30,
105,1,5,2,274,1,347.212,197.3353,135.0519,1,2,3,1,1,0,0,347.212,5.3006,1.8609,18.0886,20,
105,1,5,2,275,1,197.5864,138.251,169.3563,3,1,2,3,1,0,0,169.3563,153.2425,1.2568,-16.1138,20,
105,1,5,2,276,1,78.3333,196.916,348.4661,3,2,1,3,1,0,0,348.4661,342.7053,0.76376,-5.7608,30,
105,1,5,2,277,0,345.5161,229.0877,19.9005,0,0,0,1,0,0,0,345.5161,339.2384,1.9858,-6.2777,30,
105,1,5,2,278,1,137.058,255.2561,106.5764,1,3,2,3,0,1,0,106.5764,NaN,100000,999,0,
105,1,5,2,279,1,316.2382,79.9271,105.6379,3,2,1,1,0,0,1,316.2382,315.6755,1.6109,-0.56269,40,
105,1,5,2,280,0,229.4108,349.2476,197.8437,0,0,0,3,0,0,0,197.8437,184.0326,1.3261,-13.8111,20,
105,1,5,2,281,0,229.4693,315.8155,49.9449,0,0,0,1,0,0,0,229.4693,233.9118,0.95131,4.4425,30,
105,1,5,2,282,1,227.5872,18.508,255.2254,2,3,1,3,0,1,0,255.2254,NaN,100000,999,0,
105,1,5,2,283,0,315.497,78.0433,109.0218,0,0,0,3,0,0,0,109.0218,102.6394,1.604,-6.3824,30,
105,1,5,2,284,1,18.7949,169.6158,289.3606,1,2,3,1,1,0,0,18.7949,24.2676,1.5623,5.4727,30,
105,1,5,2,285,1,199.3241,45.7012,348.2857,1,3,2,1,1,0,0,199.3241,214.0714,1.1942,14.7473,20,
105,1,5,2,286,0,288.9333,195.5999,77.0599,0,0,0,2,0,0,0,195.5999,148.6616,1.6735,-46.9383,0,
105,1,5,2,287,1,107.9219,47.6928,319.9534,3,2,1,3,1,0,0,319.9534,315.2034,1.1596,-4.75,30,
105,1,5,2,288,0,138.8452,256.7315,319.8373,0,0,0,1,0,0,0,138.8452,137.8545,1.4652,-0.99067,40,
105,1,5,2,289,0,78.9467,46.7546,196.1009,0,0,0,3,0,0,0,196.1009,208.2645,1.6594,12.1636,20,
105,1,5,2,290,1,346.2992,48.4378,77.1625,1,2,3,1,1,0,0,346.2992,347.9057,1.486,1.6065,40,
105,1,5,2,291,0,47.5361,168.0629,318.4329,0,0,0,2,0,0,0,168.0629,140.3365,1.2777,-27.7264,10,
105,1,5,2,292,1,15.2567,229.1158,105.1847,2,1,3,2,1,0,0,229.1158,241.0892,0.91651,11.9733,30,
105,1,5,2,293,0,285.3355,346.8281,19.945,0,0,0,2,0,0,0,346.8281,342.0099,2.2012,-4.8182,30,
105,1,5,2,294,0,257.6577,228.2202,197.0375,0,0,0,2,0,0,0,228.2202,243.6797,1.1873,15.4595,20,
105,1,5,2,295,0,199.4218,139.4775,15.3904,0,0,0,2,0,0,0,139.4775,146.6858,1.4164,7.2083,30,
105,1,5,2,296,1,45.5671,195.2449,226.3806,1,2,3,2,0,1,0,195.2449,NaN,100000,999,0,
105,1,5,2,297,0,349.7923,108.436,166.3002,0,0,0,2,0,0,0,108.436,115.2442,1.2359,6.8083,30,
105,1,5,2,298,1,316.3041,199.2829,227.7306,1,2,3,1,1,0,0,316.3041,316.0575,1.2842,-0.2466,40,
105,1,5,2,299,0,195.2795,46.0652,78.8827,0,0,0,2,0,0,0,46.0652,61.2543,0.7013,15.1891,20,
105,1,5,2,300,1,315.0698,346.9085,289.5356,2,3,1,2,1,0,0,346.9085,330.9068,1.1041,-16.0017,20,
105,1,6,2,301,1,79.7841,319.5073,168.5029,1,2,3,3,0,0,1,168.5029,188.4152,2.2492,19.9123,20,
105,1,6,2,302,1,109.2112,169.8573,285.7143,1,2,3,1,1,0,0,109.2112,111.0505,1.0838,1.8393,40,
105,1,6,2,303,0,168.2753,226.9711,345.9674,0,0,0,1,0,0,0,168.2753,149.211,1.0971,-19.0642,20,
105,1,6,2,304,0,15.1918,169.2424,75.5724,0,0,0,1,0,0,0,15.1918,38.7107,1.229,23.5189,10,
105,1,6,2,305,1,18.2956,318.6955,346.8718,2,3,1,1,0,0,1,18.2956,30.8479,1.5553,12.5523,20,
105,1,6,2,306,1,289.9226,49.8966,138.096,1,2,3,1,1,0,0,289.9226,292.8992,1.5693,2.9766,40,
105,1,6,2,307,1,345.7543,78.3395,316.6828,1,3,2,1,1,0,0,345.7543,349.7135,1.4026,3.9592,30,
105,1,6,2,308,0,287.5451,135.1288,169.8776,0,0,0,2,0,0,0,135.1288,118.5377,1.375,-16.591,20,
105,1,6,2,309,0,255.8467,108.1058,137.1231,0,0,0,1,0,0,0,255.8467,256.868,1.743,1.0214,40,
105,1,6,2,310,0,288.4203,137.4371,106.7839,0,0,0,3,0,0,0,106.7839,82.4364,1.8614,-24.3475,10,
105,1,6,2,311,0,229.9133,197.8603,16.1625,0,0,0,2,0,0,0,197.8603,193.9602,2.1318,-3.9001,30,
105,1,6,2,312,0,256.8618,16.533,49.4882,0,0,0,2,0,0,0,16.533,8.4147,1.2499,-8.1182,30,
105,1,6,2,313,1,105.2382,348.4136,317.3775,3,1,2,3,1,0,0,317.3775,284.7614,1.1804,-32.6161,0,
105,1,6,2,314,1,46.5277,198.6016,289.2731,1,3,2,1,1,0,0,46.5277,46.488,1.243,-0.039697,40,
105,1,6,2,315,0,76.2584,47.9057,229.0416,0,0,0,1,0,0,0,76.2584,57.7793,1.0901,-18.4791,20,
105,1,6,2,316,1,15.2076,226.9566,199.3315,1,2,3,3,0,0,1,199.3315,169.4383,1.4304,-29.8933,10,
105,1,6,2,317,0,105.538,18.4729,48.7088,0,0,0,1,0,0,0,105.538,101.0859,1.5414,-4.4521,30,
105,1,6,2,318,0,78.8217,168.5945,49.4033,0,0,0,2,0,0,0,168.5945,161.6744,1.847,-6.9201,30,
105,1,6,2,319,0,17.4996,137.615,255.098,0,0,0,1,0,0,0,17.4996,9.1545,1.5276,-8.3452,30,
105,1,6,2,320,1,259.6594,195.4038,225.3495,2,3,1,2,1,0,0,195.4038,174.8768,1.2013,-20.527,20,
105,1,6,2,321,1,138.7434,316.0323,258.3285,3,2,1,3,1,0,0,258.3285,247.4582,0.81935,-10.8703,30,
105,1,6,2,322,1,226.0773,136.1014,199.4504,2,1,3,2,1,0,0,136.1014,128.2161,0.95829,-7.8853,30,
105,1,6,2,323,0,106.6549,46.057,18.1284,0,0,0,3,0,0,0,18.1284,24.9919,1.3748,6.8634,30,
105,1,6,2,324,0,75.7454,17.4716,229.2435,0,0,0,3,0,0,0,229.2435,235.1843,1.2914,5.9408,30,
105,1,6,2,325,0,227.1365,106.384,169.8902,0,0,0,3,0,0,0,169.8902,159.6081,1.479,-10.2821,30,
105,1,6,2,326,0,136.7248,289.6397,225.1506,0,0,0,3,0,0,0,225.1506,232.59,1.5971,7.4394,30,
105,1,6,2,327,1,226.6167,345.3252,106.8691,1,2,3,2,0,1,0,345.3252,NaN,100000,999,0,
105,1,6,2,328,1,137.1461,196.9953,105.3165,2,1,3,2,1,0,0,196.9953,203.1838,1.1943,6.1885,30,
105,1,6,2,329,0,165.379,347.1849,316.3581,0,0,0,1,0,0,0,165.379,147.9554,0.92354,-17.4236,20,
105,1,6,2,330,1,198.6708,47.4609,167.0092,3,1,2,2,0,0,1,47.4609,82.1799,0.97905,34.719,0,
105,1,6,2,331,0,257.8686,48.9896,348.1638,0,0,0,1,0,0,0,257.8686,252.5385,1.2499,-5.3301,30,
105,1,6,2,332,0,45.5781,76.0204,105.5813,0,0,0,1,0,0,0,45.5781,244.5235,1.1596,-161.0546,0,
105,1,6,2,333,1,135.3108,108.4758,285.0103,1,2,3,3,0,0,1,285.0103,308.2645,1.0832,23.2542,10,
105,1,6,2,334,0,227.9536,315.0231,15.1538,0,0,0,3,0,0,0,15.1538,48.8133,1.4652,33.6596,0,
105,1,6,2,335,1,49.2546,107.1262,77.872,1,2,3,1,1,0,0,49.2546,50.2513,0.95185,0.99666,40,
105,1,6,2,336,1,348.9192,315.0932,109.5136,2,3,1,2,1,0,0,315.0932,339.4152,1.1179,24.3219,10,
105,1,6,2,337,1,17.6051,135.8951,258.0446,1,3,2,1,1,0,0,17.6051,16.8633,1.1666,-0.74181,40,
105,1,6,2,338,0,166.9995,199.6776,317.3812,0,0,0,1,0,0,0,166.9995,161.6006,1.4442,-5.3989,30,
105,1,6,2,339,0,135.6205,47.0353,285.3385,0,0,0,3,0,0,0,285.3385,298.1203,2.3886,12.7818,20,
105,1,6,2,340,1,109.7587,15.5682,75.5864,3,1,2,2,0,0,1,15.5682,8.734,1.2221,-6.8342,30,
105,1,6,2,341,1,15.0025,285.5097,106.8519,3,1,2,3,1,0,0,106.8519,85,1.6317,-21.8519,10,
105,1,6,2,342,0,138.1121,78.2913,105.8854,0,0,0,2,0,0,0,78.2913,83.4453,1.3332,5.154,30,
105,1,6,2,343,1,287.1474,78.8986,166.9833,1,2,3,2,0,1,0,78.8986,NaN,100000,999,0,
105,1,6,2,344,1,138.8128,289.8301,109.6494,3,1,2,3,1,0,0,109.6494,108.0458,1.3534,-1.6037,40,
105,1,6,2,345,0,48.0687,106.7289,228.6132,0,0,0,2,0,0,0,106.7289,109.2726,1.1249,2.5438,40,
105,1,6,2,346,1,16.059,46.6451,78.8117,2,3,1,3,0,1,0,78.8117,NaN,100000,999,0,
105,1,6,2,347,1,319.6437,347.9149,165.0771,1,2,3,1,1,0,0,319.6437,320.9334,2.0067,1.2897,40,
105,1,6,2,348,1,49.2638,197.4076,16.3615,1,2,3,3,0,0,1,16.3615,34.9902,1.3054,18.6287,20,
105,1,6,2,349,1,168.5688,105.5118,137.2364,3,1,2,3,1,0,0,137.2364,159.815,1.2568,22.5786,10,
105,1,6,2,350,1,256.5323,289.1405,199.0395,3,1,2,3,1,0,0,199.0395,195.2861,0.9444,-3.7534,30,
105,1,6,2,351,0,289.3933,257.0109,317.8066,0,0,0,1,0,0,0,289.3933,269.8372,0.97904,-19.5561,20,
105,1,6,2,352,0,45.738,169.6035,199.6473,0,0,0,1,0,0,0,45.738,53.3723,1.1462,7.6343,30,
105,1,6,2,353,1,75.9207,225.0509,15.4296,2,3,1,2,1,0,0,225.0509,252.9613,0.84712,27.9104,10,
105,1,6,2,354,1,166.8589,226.9144,46.2815,3,2,1,3,1,0,0,46.2815,53.3037,0.69447,7.0222,30,
105,1,6,2,355,0,255.2989,138.0798,107.8197,0,0,0,3,0,0,0,107.8197,108.5446,1.5901,0.72486,40,
105,1,6,2,356,1,288.9209,349.9041,78.4497,1,3,2,1,1,0,0,288.9209,286.9791,0.99991,-1.9418,40,
105,1,6,2,357,1,228.5225,288.6814,78.2834,2,1,3,3,0,0,1,78.2834,70.5579,1.1734,-7.7255,30,
105,1,6,2,358,0,258.4428,139.2845,199.5032,0,0,0,3,0,0,0,199.5032,183.9655,1.59,-15.5377,20,
105,1,6,2,359,0,75.109,109.102,226.4375,0,0,0,2,0,0,0,109.102,93.4874,1.1804,-15.6145,20,
105,1,6,2,360,0,228.5207,257.1121,199.7893,0,0,0,3,0,0,0,199.7893,209.9297,1.5837,10.1405,30,
105,1,7,1,361,1,348.6401,108.1069,135.629,2,1,3,2,1,0,0,108.1069,117.057,0.81213,8.9501,30,
105,1,7,1,362,1,165.9707,77.9004,136.2374,1,3,2,2,0,0,1,77.9004,99.9874,0.80544,22.087,10,
105,1,7,1,363,1,229.1241,195.9179,256.9655,1,2,3,2,0,1,0,195.9179,187.5734,1.3053,-8.3445,30,
105,1,7,1,364,0,165.5695,109.6809,78.4418,0,0,0,2,0,0,0,109.6809,99.3166,0.8958,-10.3643,30,
105,1,7,1,365,0,166.3811,318.0762,16.4743,0,0,0,3,0,0,0,16.4743,26.5871,1.4234,10.1128,30,
105,1,7,1,366,0,315.405,165.8073,195.459,0,0,0,1,0,0,0,315.405,322.3546,1.5137,6.9496,30,
105,1,7,1,367,1,109.6495,47.4527,18.9816,1,3,2,1,1,0,0,109.6495,110.9665,1.0485,1.3171,40,
105,1,7,1,368,1,315.9086,169.1649,17.0315,3,1,2,3,1,0,0,17.0315,16.2222,1.2431,-0.80929,40,
105,1,7,1,369,0,107.3031,169.6046,349.4309,0,0,0,2,0,0,0,169.6046,155.2654,1.2014,-14.3392,20,
105,1,7,1,370,1,108.4366,228.0565,165.4117,2,1,3,3,0,0,1,165.4117,158.4869,1.5901,-6.9248,30,
105,1,7,1,371,1,316.0868,15.5768,45.4294,3,1,2,1,0,1,0,316.0868,306.8356,1.2151,-9.2513,30,
105,1,7,1,372,0,169.7511,317.414,197.1645,0,0,0,3,0,0,0,197.1645,163.9258,1.347,-33.2387,0,
105,1,7,1,373,0,135.5719,46.7905,318.9267,0,0,0,1,0,0,0,135.5719,138.2955,0.99986,2.7236,40,
105,1,7,1,374,1,346.8346,19.0539,319.4885,2,1,3,1,0,1,0,346.8346,356.2688,1.1803,9.4342,30,
105,1,7,1,375,0,45.1252,77.8716,18.6469,0,0,0,2,0,0,0,77.8716,96.8538,1.1665,18.9822,20,
105,1,7,1,376,1,317.5322,107.8856,259.3953,1,2,3,2,0,1,0,107.8856,105.1245,1.0069,-2.7611,40,
105,1,7,1,377,1,76.9089,199.9239,16.0256,1,3,2,3,0,1,0,16.0256,33.7663,1.5762,17.7406,20,
105,1,7,1,378,1,345.0754,165.4797,78.9348,3,2,1,3,1,0,0,78.9348,85.3996,1.3471,6.4648,30,
105,1,7,1,379,0,109.1753,197.4117,135.2972,0,0,0,1,0,0,0,109.1753,114.0678,1.2845,4.8925,30,
105,1,7,1,380,1,196.7345,169.6713,346.8693,3,2,1,3,1,0,0,346.8693,348.6345,0.92362,1.7653,40,
105,1,7,1,381,0,107.2397,46.175,135.3356,0,0,0,2,0,0,0,46.175,127.5292,0.96511,81.3542,0,
105,1,7,1,382,0,226.7344,348.1009,317.1787,0,0,0,3,0,0,0,317.1787,320.5232,0.90961,3.3445,30,
105,1,7,1,383,1,195.1111,168.29,137.2932,3,2,1,3,1,0,0,137.2932,115.7913,1.097,-21.5019,10,
105,1,7,1,384,0,347.3584,46.9958,19.5556,0,0,0,2,0,0,0,46.9958,62.668,1.6874,15.6722,20,
105,1,7,1,385,1,319.1758,109.2633,258.2195,2,1,3,2,1,0,0,109.2633,109.5683,0.94431,0.30505,40,
105,1,7,1,386,1,197.0324,288.9135,137.166,3,1,2,2,0,0,1,288.9135,299.1614,1.4514,10.248,30,
105,1,7,1,387,0,348.7326,75.5152,105.2421,0,0,0,2,0,0,0,75.5152,88.5125,0.72903,12.9973,20,
105,1,7,1,388,0,77.205,226.647,167.8605,0,0,0,1,0,0,0,77.205,41.7007,1.854,-35.5043,0,
105,1,7,1,389,0,345.8717,259.7531,79.8875,0,0,0,2,0,0,0,259.7531,284.5679,1.111,24.8148,10,
105,1,7,1,390,1,285.5664,17.3066,228.5932,1,2,3,1,1,0,0,285.5664,294.2638,1.1944,8.6974,30,
105,1,7,1,391,0,196.333,165.6764,255.3885,0,0,0,3,0,0,0,255.3885,239.2407,1.111,-16.1478,20,
105,1,7,1,392,1,106.7317,169.8031,346.5066,3,2,1,3,1,0,0,346.5066,0.99289,0.88889,14.4863,20,
105,1,7,1,393,1,136.2231,17.9134,225.2637,2,3,1,1,0,0,1,136.2231,114.0842,1.2985,-22.1389,10,
105,1,7,1,394,0,48.0304,138.6822,108.5663,0,0,0,2,0,0,0,138.6822,136.5978,0.80547,-2.0844,40,
105,1,7,1,395,1,135.9702,318.1324,228.1037,3,2,1,3,1,0,0,228.1037,235.5303,1.0625,7.4266,30,
105,1,7,1,396,1,165.2446,15.5411,79.2915,2,3,1,2,1,0,0,15.5411,10.8554,0.88887,-4.6857,30,
105,1,7,1,397,1,285.1272,199.8929,135.661,2,3,1,2,1,0,0,199.8929,193.4611,1.3192,-6.4318,30,
105,1,7,1,398,1,108.6478,317.4935,257.7333,1,3,2,1,1,0,0,108.6478,111.452,1.4582,2.8042,40,
105,1,7,1,399,1,47.793,198.7833,229.8796,1,3,2,1,1,0,0,47.793,54.4337,1.3748,6.6407,30,
105,1,7,1,400,0,16.5286,198.8272,226.2644,0,0,0,3,0,0,0,226.2644,227.5573,1.354,1.2928,40,
105,1,7,1,401,1,257.3597,48.9807,169.3782,2,1,3,3,0,0,1,169.3782,126.4228,1.2707,-42.9554,0,
105,1,7,1,402,0,226.0922,49.7603,76.8113,0,0,0,1,0,0,0,226.0922,229.1706,1.2429,3.0784,30,
105,1,7,1,403,0,227.4851,346.4198,105.371,0,0,0,2,0,0,0,346.4198,332.3833,1.3818,-14.0364,20,
105,1,7,1,404,1,256.8705,46.0809,17.8801,1,2,3,2,0,1,0,46.0809,72.9099,0.88883,26.829,10,
105,1,7,1,405,1,15.124,49.5563,345.74,2,3,1,1,0,0,1,15.124,21.4405,2.0276,6.3165,30,
105,1,7,1,406,1,259.4542,17.9429,105.8129,1,3,2,1,1,0,0,259.4542,234.9651,1.7012,-24.4892,10,
105,1,7,1,407,1,16.7648,199.979,316.8248,1,2,3,1,1,0,0,16.7648,26.1267,1.4582,9.3619,30,
105,1,7,1,408,0,49.1793,317.9413,226.8173,0,0,0,1,0,0,0,49.1793,55.8441,1.0207,6.6647,30,
105,1,7,1,409,1,135.3203,49.2732,19.8723,3,2,1,3,1,0,0,19.8723,31.519,1.3194,11.6467,30,
105,1,7,1,410,1,348.9881,196.8402,165.0757,2,1,3,2,1,0,0,196.8402,191.2204,0.93733,-5.6198,30,
105,1,7,1,411,0,169.6561,48.0783,106.2914,0,0,0,2,0,0,0,48.0783,58.0473,1.0206,9.9689,30,
105,1,7,1,412,1,259.3564,318.0681,106.3572,1,3,2,1,1,0,0,259.3564,248.7278,0.95122,-10.6286,30,
105,1,7,1,413,1,48.6716,136.6975,346.5138,2,3,1,2,1,0,0,136.6975,134.8057,1.1736,-1.8918,40,
105,1,7,1,414,0,46.251,18.0135,228.1273,0,0,0,3,0,0,0,228.1273,232.1328,1.3262,4.0055,30,
105,1,7,1,415,0,18.6461,228.4192,138.2071,0,0,0,3,0,0,0,138.2071,116.4582,1.2012,-21.7489,10,
105,1,7,1,416,0,137.01,78.9045,259.1961,0,0,0,3,0,0,0,259.1961,252.8161,1.1039,-6.38,30,
105,1,7,1,417,1,228.0223,256.9172,107.7524,2,1,3,2,1,0,0,256.9172,277.8617,1.3331,20.9446,20,
105,1,7,1,418,1,77.5213,136.8426,18.4262,1,2,3,3,0,0,1,18.4262,17.1188,1.4026,-1.3075,40,
105,1,7,1,419,1,45.0179,257.1253,16.1217,2,3,1,2,1,0,0,257.1253,253.0321,1.2638,-4.0932,30,
105,1,7,1,420,1,167.9834,315.0926,139.666,2,3,1,2,1,0,0,315.0926,315.2588,1.1527,0.1662,40,
105,1,8,1,421,0,19.4819,349.1117,259.4139,0,0,0,3,0,0,0,259.4139,251.3077,1.1873,-8.1063,30,
105,1,8,1,422,1,226.2781,19.858,77.9056,1,2,3,2,0,1,0,19.858,7.4809,1.0207,-12.3771,20,
105,1,8,1,423,1,45.6067,75.203,349.4397,2,1,3,2,1,0,0,75.203,99.0488,0.95817,23.8458,10,
105,1,8,1,424,0,108.7988,198.075,135.7603,0,0,0,1,0,0,0,108.7988,113.3519,1.1735,4.5531,30,
105,1,8,1,425,1,347.5489,78.1367,19,2,3,1,2,1,0,0,78.1367,97.0861,0.70138,18.9493,20,
105,1,8,1,426,1,258.037,49.9834,195.2119,1,3,2,2,0,0,1,49.9834,90.7437,0.97906,40.7603,0,
105,1,8,1,427,1,229.2602,15.4968,257.9889,3,2,1,3,1,0,0,257.9889,255.0485,0.63855,-2.9404,40,
105,1,8,1,428,1,345.1878,285.5768,259.0935,1,2,3,1,1,0,0,345.1878,21.5827,1.3748,36.3949,0,
105,1,8,1,429,1,107.8684,347.4155,47.1081,2,1,3,3,0,0,1,47.1081,33.6146,0.96507,-13.4935,20,
105,1,8,1,430,1,196.8805,76.0165,165.8958,3,2,1,3,1,0,0,165.8958,138.232,0.92351,-27.6638,10,
105,1,8,1,431,1,259.979,135.0422,228.6642,3,2,1,1,0,0,1,259.979,251.5666,1.3192,-8.4125,30,
105,1,8,1,432,1,289.2735,346.0245,19.3018,2,1,3,2,1,0,0,346.0245,339.7558,1.0486,-6.2686,30,
105,1,8,1,433,0,348.6641,77.3639,16.9629,0,0,0,2,0,0,0,77.3639,84.0609,0.88204,6.6969,30,
105,1,8,1,434,0,139.7399,49.6835,109.9839,0,0,0,3,0,0,0,109.9839,107.1724,1.7776,-2.8115,40,
105,1,8,1,435,0,258.7759,16.4223,166.0312,0,0,0,2,0,0,0,16.4223,12.0907,1.0694,-4.3317,30,
105,1,8,1,436,1,285.3578,135.942,106.6778,2,3,1,3,0,1,0,106.6778,101.5518,1.4096,-5.1261,30,
105,1,8,1,437,1,287.168,75.6769,166.078,2,3,1,2,1,0,0,75.6769,81.8824,0.97208,6.2056,30,
105,1,8,1,438,1,348.0378,45.3974,137.0769,3,2,1,1,0,0,1,348.0378,350.7895,1.4165,2.7518,40,
105,1,8,1,439,1,228.4184,79.442,138.5643,3,1,2,3,1,0,0,138.5643,106.9564,2.3886,-31.6079,0,
105,1,8,1,440,1,106.9983,77.2006,196.5481,3,1,2,3,1,0,0,196.5481,181.7114,1.3819,-14.8367,20,
105,1,8,1,441,1,138.2049,259.8788,319.6033,3,2,1,3,1,0,0,319.6033,312.3939,1.243,-7.2094,30,
105,1,8,1,442,0,16.7871,75.6814,169.0289,0,0,0,3,0,0,0,169.0289,154.4418,1.4097,-14.5871,20,
105,1,8,1,443,1,138.017,198.3382,169.3166,1,3,2,1,1,0,0,138.017,117.6817,1.1318,-20.3353,20,
105,1,8,1,444,1,46.4313,349.1655,288.8512,1,2,3,1,1,0,0,46.4313,59.862,1.5342,13.4307,20,
105,1,8,1,445,1,15.4099,286.8748,255.435,3,2,1,2,0,1,0,286.8748,295.5211,1.4442,8.6463,30,
105,1,8,1,446,0,258.6654,107.634,76.3465,0,0,0,1,0,0,0,258.6654,251.5661,1.1527,-7.0993,30,
105,1,8,1,447,1,108.6335,169.8065,228.7511,1,3,2,1,1,0,0,108.6335,64.564,1.1109,-44.0695,0,
105,1,8,1,448,1,16.72,286.1982,165.002,1,2,3,2,0,1,0,286.1982,295.2566,1.097,9.0584,30,
105,1,8,1,449,0,168.6221,287.0458,139.9883,0,0,0,1,0,0,0,168.6221,166.1527,0.97216,-2.4694,40,
105,1,8,1,450,1,348.249,318.9504,75.3615,3,2,1,3,1,0,0,75.3615,78.4333,0.8679,3.0718,30,
105,1,8,1,451,1,47.0638,317.0801,197.3169,3,1,2,3,1,0,0,197.3169,222.0014,0.84705,24.6846,10,
105,1,8,1,452,0,255.3488,319.3022,166.0419,0,0,0,3,0,0,0,166.0419,159.6668,1.2921,-6.3752,30,
105,1,8,1,453,1,286.5414,166.6602,19.658,2,1,3,2,1,0,0,166.6602,170.7703,1.104,4.1101,30,
105,1,8,1,454,0,48.7005,137.024,315.2571,0,0,0,2,0,0,0,137.024,155.1491,1.0554,18.1251,20,
105,1,8,1,455,0,258.172,318.6573,285.7818,0,0,0,1,0,0,0,258.172,251.5667,1.5832,-6.6053,30,
105,1,8,1,456,0,165.231,257.1094,286.7793,0,0,0,2,0,0,0,257.1094,257.9116,2.604,0.80225,40,
105,1,8,1,457,0,227.6564,169.6851,256.6671,0,0,0,1,0,0,0,227.6564,238.6073,1.229,10.951,30,
105,1,8,1,458,1,107.2598,348.8097,288.1292,1,3,2,1,1,0,0,107.2598,111.2839,0.78472,4.0241,30,
105,1,8,1,459,1,15.902,46.4852,199.1465,1,2,3,1,1,0,0,15.902,30.0868,1.6178,14.1848,20,
105,1,8,1,460,0,168.8212,106.8982,197.2703,0,0,0,1,0,0,0,168.8212,158.4332,0.9305,-10.388,30,
105,1,8,1,461,0,137.7108,199.1513,166.5872,0,0,0,3,0,0,0,166.5872,166.5819,2.0135,-0.005285,40,
105,1,8,1,462,1,137.9032,285.9225,347.4746,2,3,1,2,1,0,0,285.9225,293.0775,1.1179,7.155,30,
105,1,8,1,463,1,196.5762,75.7709,106.9421,3,2,1,2,0,1,0,75.7709,87.3735,0.86802,11.6025,30,
105,1,8,1,464,1,285.3413,136.0661,78.8595,1,3,2,1,1,0,0,285.3413,255.762,0.97898,-29.5793,10,
105,1,8,1,465,1,108.3365,79.3563,165.9066,2,1,3,1,0,1,0,108.3365,103.6385,0.88879,-4.698,30,
105,1,8,1,466,1,168.7508,348.7918,47.9178,1,3,2,2,0,0,1,348.7918,330.961,1.4165,-17.8308,20,
105,1,8,1,467,1,136.3524,348.8175,316.5929,3,1,2,3,1,0,0,316.5929,301.0524,1.5068,-15.5404,20,
105,1,8,1,468,1,75.5238,107.2228,287.4528,3,1,2,1,0,1,0,75.5238,70.9294,1.0624,-4.5944,30,
105,1,8,1,469,1,108.5544,76.3167,166.4805,3,1,2,3,1,0,0,166.4805,162.9194,1.0004,-3.5611,30,
105,1,8,1,470,0,259.2464,105.2999,18.8336,0,0,0,3,0,0,0,18.8336,18.6942,0.88882,-0.13944,40,
105,1,8,1,471,1,75.1583,345.7907,108.5985,3,1,2,3,1,0,0,108.5985,100.3019,0.91662,-8.2967,30,
105,1,8,1,472,0,138.904,195.9652,285.8697,0,0,0,1,0,0,0,138.904,149.5807,0.90955,10.6768,30,
105,1,8,1,473,0,199.5466,285.8034,138.6897,0,0,0,1,0,0,0,199.5466,233.7881,1.0902,34.2414,0,
105,1,8,1,474,0,45.596,168.2843,289.7366,0,0,0,2,0,0,0,168.2843,166.6099,1.2637,-1.6744,40,
105,1,8,1,475,0,47.2486,259.3221,289.7698,0,0,0,1,0,0,0,47.2486,36.6704,1.2916,-10.5782,30,
105,1,8,1,476,1,259.3878,105.4648,79.6492,3,2,1,3,1,0,0,79.6492,70.6289,1.8191,-9.0204,30,
105,1,8,1,477,0,77.187,227.5914,47.8009,0,0,0,1,0,0,0,77.187,93.8742,0.84017,16.6871,20,
105,1,8,1,478,0,197.6277,46.1462,135.2819,0,0,0,3,0,0,0,135.2819,133.4125,1.5698,-1.8695,40,
105,1,8,1,479,1,139.1133,197.1161,345.5079,1,3,2,1,1,0,0,139.1133,132.5095,1.0554,-6.6037,30,
105,1,8,1,480,1,17.8186,46.5734,105.7283,1,2,3,3,0,0,1,105.7283,128.1827,1.4721,22.4544,10,
