Subject,Session,Block,Condition,Trial,whetherCued,leftStim,rightStim,midStim,remCueLoc,fogCueLoc,neutralCueLoc,probeCueLoc,probeRem,probeForget,probeNeutral,Target,Estimate,RT,Error,Points
110,1,1,2,1,0,49.7896,79.9464,316.1134,0,0,0,3,0,0,0,316.1134,310.3729,1.1097,-5.7405,30,
110,1,1,2,2,0,77.0194,199.4614,227.103,0,0,0,2,0,0,0,199.4614,73.3701,2.437,-126.0913,0,
110,1,1,2,3,1,107.3167,76.231,48.7899,1,3,2,1,1,0,0,107.3167,115.4199,1.8332,8.1033,30,
110,1,1,2,4,1,46.5011,229.286,259.0886,1,2,3,1,1,0,0,46.5011,59.429,1.6666,12.9279,20,
110,1,1,2,5,1,167.7587,285.8897,225.4277,3,2,1,3,1,0,0,225.4277,225.1086,2.5554,-0.31912,40,
110,1,1,2,6,0,139.4448,16.7913,257.1701,0,0,0,2,0,0,0,16.7913,130.7983,1.84,114.007,0,
110,1,1,2,7,0,287.5328,228.5846,106.5061,0,0,0,2,0,0,0,228.5846,245.2936,2.4164,16.709,20,
110,1,1,2,8,1,285.7947,107.626,166.5987,3,1,2,3,1,0,0,166.5987,161.2317,2.4998,-5.367,30,
110,1,1,2,9,1,45.2874,135.0467,79.1546,3,1,2,3,1,0,0,79.1546,67.7588,1.9859,-11.3958,30,
110,1,1,2,10,0,79.647,105.642,46.1049,0,0,0,2,0,0,0,105.642,129.2812,1.4998,23.6392,10,
110,1,1,2,11,1,136.1606,18.991,46.1892,1,3,2,2,0,0,1,18.991,110.1008,3.6107,91.1097,0,
110,1,1,2,12,1,79.8082,137.2081,288.4624,2,3,1,2,1,0,0,137.2081,127.9522,2.1589,-9.2559,30,
110,1,1,2,13,0,109.8696,78.5771,198.492,0,0,0,3,0,0,0,198.492,226.1306,2.4719,27.6387,10,
110,1,1,2,14,1,257.1834,225.656,198.267,3,1,2,3,1,0,0,198.267,217.1299,1.1319,18.8629,20,
110,1,1,2,15,1,288.0548,167.4508,77.2238,2,1,3,2,1,0,0,167.4508,150.7379,1.8817,-16.7129,20,
110,1,1,2,16,0,49.7556,255.3335,19.7307,0,0,0,1,0,0,0,49.7556,50.4715,2.1664,0.71592,40,
110,1,1,2,17,1,45.2934,319.0682,76.7284,2,3,1,2,1,0,0,319.0682,314.4506,1.6873,-4.6176,30,
110,1,1,2,18,1,286.8599,346.6542,105.0926,2,1,3,2,1,0,0,346.6542,307.5985,1.5346,-39.0557,0,
110,1,1,2,19,1,285.6755,229.6926,197.3393,1,3,2,1,1,0,0,285.6755,301.021,1.9096,15.3455,20,
110,1,1,2,20,1,139.9254,167.2356,75.3731,3,2,1,3,1,0,0,75.3731,54.6275,2.5206,-20.7456,20,
110,1,1,2,21,1,197.0647,19.8204,227.9956,2,1,3,1,0,1,0,197.0647,NaN,100000,999,0,
110,1,1,2,22,1,78.4508,138.1395,108.8821,1,3,2,3,0,1,0,108.8821,NaN,100000,999,0,
110,1,1,2,23,1,45.2953,226.1567,319.6772,2,1,3,2,1,0,0,226.1567,230.5742,2.1034,4.4174,30,
110,1,1,2,24,1,225.5774,45.6965,137.0227,1,3,2,1,1,0,0,225.5774,222.2408,1.5207,-3.3366,30,
110,1,1,2,25,1,135.8829,345.8672,79.2824,1,3,2,2,0,0,1,345.8672,60.8878,2.9164,75.0206,0,
110,1,1,2,26,1,139.625,347.4725,106.1053,3,2,1,3,1,0,0,106.1053,106.736,2.8052,0.6307,40,
110,1,1,2,27,1,49.1854,227.8516,108.9154,2,1,3,3,0,0,1,108.9154,116.3164,2.2012,7.401,30,
110,1,1,2,28,1,136.265,229.3607,287.681,3,1,2,2,0,0,1,229.3607,236.2662,2.2283,6.9055,30,
110,1,1,2,29,1,199.1968,317.8928,256.3782,2,1,3,2,1,0,0,317.8928,307.0157,1.5275,-10.8771,30,
110,1,1,2,30,0,169.6031,226.8127,315.3177,0,0,0,3,0,0,0,315.3177,298.5368,1.1666,-16.7809,20,
110,1,1,2,31,0,347.8238,165.2285,49.6889,0,0,0,1,0,0,0,347.8238,180.3574,1.972,-167.4665,0,
110,1,1,2,32,1,135.9108,16.6392,345.1189,2,1,3,2,1,0,0,16.6392,235.7899,7.0131,-140.8493,0,
110,1,1,2,33,0,19.1732,169.0778,287.7741,0,0,0,2,0,0,0,169.0778,59.2579,1.8054,-109.8199,0,
110,1,1,2,34,0,167.3649,288.591,225.64,0,0,0,3,0,0,0,225.64,289.9332,1.9581,64.2931,0,
110,1,1,2,35,1,135.7817,225.654,195.8518,2,1,3,2,1,0,0,225.654,227.9715,1.7915,2.3176,40,
110,1,1,2,36,0,168.3601,139.042,18.3845,0,0,0,1,0,0,0,168.3601,15.8022,1.736,-152.5579,0,
110,1,1,2,37,1,136.23,167.0824,226.8499,1,3,2,3,0,1,0,226.8499,NaN,100000,999,0,
110,1,1,2,38,1,135.2984,49.8434,105.3275,1,2,3,3,0,0,1,105.3275,128.3978,2.8262,23.0703,10,
110,1,1,2,39,1,138.8971,45.4316,75.8945,3,2,1,3,1,0,0,75.8945,64.335,1.6733,-11.5594,30,
110,1,1,2,40,1,105.0693,46.3358,169.6604,2,1,3,2,1,0,0,46.3358,43.8755,1.2777,-2.4603,40,
110,1,1,2,41,0,49.4302,315.5335,108.1016,0,0,0,3,0,0,0,108.1016,136.0831,4.6385,27.9816,10,
110,1,1,2,42,0,139.8005,288.062,226.7679,0,0,0,1,0,0,0,139.8005,135.8912,1.8054,-3.9093,30,
110,1,1,2,43,1,167.6678,48.1755,289.787,2,3,1,2,1,0,0,48.1755,56.8992,1.4512,8.7237,30,
110,1,1,2,44,1,197.9081,229.34,345.6535,3,1,2,2,0,0,1,229.34,45.3509,1.3263,176.0109,0,
110,1,1,2,45,1,198.3868,316.8924,47.1722,2,3,1,2,1,0,0,316.8924,41.2596,2.4512,84.3672,0,
110,1,1,2,46,1,348.8737,46.761,135.9903,3,1,2,3,1,0,0,135.9903,138.6333,1.5346,2.643,40,
110,1,1,2,47,0,76.903,197.0924,45.3297,0,0,0,3,0,0,0,45.3297,331.6691,2.9371,-73.6605,0,
110,1,1,2,48,1,136.5088,229.1604,288.8523,1,3,2,2,0,0,1,229.1604,71.7299,4.8889,-157.4305,0,
110,1,1,2,49,0,106.3387,229.2591,259.1417,0,0,0,3,0,0,0,259.1417,278.6305,1.9304,19.4888,20,
110,1,1,2,50,0,225.4507,45.0226,165.9356,0,0,0,2,0,0,0,45.0226,54.7445,2.4233,9.7219,30,
110,1,1,2,51,1,195.0187,348.9883,316.4683,2,1,3,2,1,0,0,348.9883,48.6555,1.2636,59.6671,0,
110,1,1,2,52,0,256.5477,167.6544,347.6966,0,0,0,2,0,0,0,167.6544,151.8899,1.4096,-15.7645,20,
110,1,1,2,53,1,48.4942,167.3936,196.9609,3,2,1,3,1,0,0,196.9609,212.6806,2.2024,15.7197,20,
110,1,1,2,54,1,77.8891,166.4372,198.8866,2,1,3,2,1,0,0,166.4372,150.8855,1.7081,-15.5518,20,
110,1,1,2,55,1,198.7267,319.6301,78.7633,1,2,3,2,0,1,0,319.6301,NaN,100000,999,0,
110,1,1,2,56,0,105.7815,18.9205,318.0679,0,0,0,1,0,0,0,105.7815,154.7756,1.5207,48.994,0,
110,1,1,2,57,1,195.9681,75.3757,135.4207,2,3,1,2,1,0,0,75.3757,68.6244,1.1601,-6.7514,30,
110,1,1,2,58,1,318.4292,136.9758,259.457,2,3,1,2,1,0,0,136.9758,134.4422,1.3472,-2.5337,40,
110,1,1,2,59,0,315.8649,286.3007,139.7834,0,0,0,3,0,0,0,139.7834,136.0561,2.0762,-3.7273,30,
110,1,1,2,60,1,136.7631,349.82,167.8037,2,3,1,2,1,0,0,349.82,321.8594,1.5763,-27.9606,10,
110,1,2,2,61,1,167.6301,256.6044,226.4234,3,1,2,1,0,1,0,167.6301,NaN,100000,999,0,
110,1,2,2,62,1,137.7579,257.587,17.0248,1,2,3,1,1,0,0,137.7579,135.8179,1.4303,-1.94,40,
110,1,2,2,63,0,285.1547,77.1619,137.0661,0,0,0,2,0,0,0,77.1619,66.1959,1.0624,-10.966,30,
110,1,2,2,64,1,197.0842,169.933,47.6953,1,2,3,1,1,0,0,197.0842,219.5234,0.96519,22.4392,10,
110,1,2,2,65,1,47.3388,286.9021,228.4623,3,2,1,3,1,0,0,228.4623,230.2658,2.0762,1.8035,40,
110,1,2,2,66,1,45.9318,319.7526,199.9844,1,2,3,3,0,0,1,199.9844,224.6542,1.6596,24.6698,10,
110,1,2,2,67,1,288.4085,317.6472,79.1872,3,2,1,2,0,1,0,317.6472,NaN,100000,999,0,
110,1,2,2,68,1,139.781,167.5432,196.0515,1,3,2,1,1,0,0,139.781,143.0174,1.181,3.2364,30,
110,1,2,2,69,0,168.3628,106.6193,138.1707,0,0,0,3,0,0,0,138.1707,140.8626,1.7151,2.6919,40,
110,1,2,2,70,0,228.9821,76.543,197.543,0,0,0,3,0,0,0,197.543,234.2117,1.7568,36.6687,0,
110,1,2,2,71,1,228.8666,319.9715,256.5864,1,2,3,1,1,0,0,228.8666,228.64,1.2429,-0.22662,40,
110,1,2,2,72,0,315.7351,225.6485,78.3033,0,0,0,2,0,0,0,225.6485,225.225,2.3331,-0.42347,40,
110,1,2,2,73,1,16.0743,46.4231,348.4227,2,3,1,2,1,0,0,46.4231,45.2825,1.2499,-1.1406,40,
110,1,2,2,74,0,316.6161,165.7748,79.37,0,0,0,1,0,0,0,316.6161,333.8912,2.7774,17.2751,20,
110,1,2,2,75,1,349.5712,315.4876,19.3216,2,3,1,2,1,0,0,315.4876,335.9221,1.4512,20.4344,20,
110,1,2,2,76,1,289.1401,197.774,316.6019,2,1,3,1,0,1,0,289.1401,NaN,100000,999,0,
110,1,2,2,77,1,318.2537,228.0656,288.7594,3,1,2,2,0,0,1,228.0656,285.9966,2.3469,57.931,0,
110,1,2,2,78,0,349.0518,288.638,19.0051,0,0,0,3,0,0,0,19.0051,348.9389,1.6942,-30.0662,0,
110,1,2,2,79,0,197.5932,318.5043,258.9229,0,0,0,1,0,0,0,197.5932,210.133,1.5415,12.5398,20,
110,1,2,2,80,0,166.6779,107.3901,136.1192,0,0,0,3,0,0,0,136.1192,131.2854,2.5067,-4.8338,30,
110,1,2,2,81,1,168.0325,79.5655,107.8591,2,3,1,3,0,1,0,107.8591,NaN,100000,999,0,
110,1,2,2,82,0,47.4385,286.522,315.7046,0,0,0,1,0,0,0,47.4385,63.3936,2.0068,15.9551,20,
110,1,2,2,83,1,227.7914,108.7736,345.4821,3,1,2,2,0,0,1,108.7736,124.3772,2.9233,15.6035,20,
110,1,2,2,84,1,168.4169,315.1683,229.6498,2,3,1,2,1,0,0,315.1683,322.4103,2.347,7.242,30,
110,1,2,2,85,1,49.5929,136.842,287.8145,1,2,3,1,1,0,0,49.5929,55.0579,1.5207,5.465,30,
110,1,2,2,86,0,198.5571,165.3131,135.3082,0,0,0,1,0,0,0,198.5571,221.8722,4.4856,23.3151,10,
110,1,2,2,87,0,75.3939,198.178,228.081,0,0,0,1,0,0,0,75.3939,57.4742,1.6596,-17.9197,20,
110,1,2,2,88,1,257.4894,106.851,138.3061,2,3,1,2,1,0,0,106.851,127.5957,1.4166,20.7447,20,
110,1,2,2,89,0,169.1381,257.1404,77.5215,0,0,0,3,0,0,0,77.5215,283.6301,2.7358,-153.8915,0,
110,1,2,2,90,0,346.4828,135.2291,258.9999,0,0,0,1,0,0,0,346.4828,333.093,1.9859,-13.3898,20,
110,1,2,2,91,1,169.8799,317.5524,76.9673,1,3,2,2,0,0,1,317.5524,300.8521,2.472,-16.7003,20,
110,1,2,2,92,0,225.729,345.8152,167.6929,0,0,0,3,0,0,0,167.6929,173.579,2.2636,5.8861,30,
110,1,2,2,93,1,285.6479,108.0648,139.8173,3,2,1,3,1,0,0,139.8173,161.6915,2.0345,21.8742,10,
110,1,2,2,94,1,255.4049,19.5107,346.2637,2,3,1,2,1,0,0,19.5107,21.0176,1.2707,1.5069,40,
110,1,2,2,95,1,166.5714,349.9771,315.9457,1,3,2,1,1,0,0,166.5714,161.4894,1.9095,-5.082,30,
110,1,2,2,96,0,227.3712,258.984,165.1243,0,0,0,1,0,0,0,227.3712,201.5811,2.5484,-25.79,10,
110,1,2,2,97,0,286.0524,107.1747,199.6655,0,0,0,2,0,0,0,107.1747,132.6496,1.6178,25.4749,10,
110,1,2,2,98,0,315.5124,45.1071,347.5846,0,0,0,1,0,0,0,315.5124,312.0386,1.5068,-3.4738,30,
110,1,2,2,99,1,48.4294,349.0523,15.754,1,2,3,1,1,0,0,48.4294,217.4594,1.3539,169.03,0,
110,1,2,2,100,1,347.0692,136.3647,318.4482,3,1,2,3,1,0,0,318.4482,291.9237,1.8262,-26.5245,10,
110,1,2,2,101,0,289.4533,259.4763,48.9716,0,0,0,1,0,0,0,289.4533,307.4143,1.9998,17.961,20,
110,1,2,2,102,0,135.2139,349.3533,79.4392,0,0,0,2,0,0,0,349.3533,138.0412,1.2777,148.688,0,
110,1,2,2,103,0,195.5347,47.2655,105.9686,0,0,0,1,0,0,0,195.5347,51.8534,2.0554,-143.6813,0,
110,1,2,2,104,0,167.5928,47.1268,109.0606,0,0,0,1,0,0,0,167.5928,219.3719,4.5551,51.7791,0,
110,1,2,2,105,0,49.8763,256.4109,319.8779,0,0,0,3,0,0,0,319.8779,296.0143,2.8191,-23.8636,10,
110,1,2,2,106,1,109.997,319.404,45.1946,1,3,2,3,0,1,0,45.1946,NaN,100000,999,0,
110,1,2,2,107,1,288.5304,319.2904,76.3491,2,3,1,2,1,0,0,319.2904,315.3807,1.3818,-3.9096,30,
110,1,2,2,108,1,259.2226,16.9048,75.448,2,1,3,2,1,0,0,16.9048,29.0054,2.2011,12.1006,20,
110,1,2,2,109,0,287.3023,107.8037,348.281,0,0,0,3,0,0,0,348.281,339.5906,1.7012,-8.6903,30,
110,1,2,2,110,1,107.3051,76.5081,287.7735,1,3,2,1,1,0,0,107.3051,132.1263,1.1804,24.8212,10,
110,1,2,2,111,1,287.4029,45.335,195.4102,2,1,3,3,0,0,1,195.4102,218.6857,1.9304,23.2755,10,
110,1,2,2,112,1,319.2486,49.3263,15.3706,1,2,3,1,1,0,0,319.2486,318.63,1.479,-0.61857,40,
110,1,2,2,113,1,47.8205,76.1069,167.9354,3,2,1,2,0,1,0,76.1069,NaN,100000,999,0,
110,1,2,2,114,1,348.0664,286.3547,317.3484,2,1,3,3,0,0,1,317.3484,175.628,1.7915,-141.7204,0,
110,1,2,2,115,0,77.1119,17.5712,286.6792,0,0,0,1,0,0,0,77.1119,128.847,1.5068,51.7352,0,
110,1,2,2,116,0,15.0253,285.8329,109.373,0,0,0,1,0,0,0,15.0253,38.2489,1.9582,23.2236,10,
110,1,2,2,117,0,49.0875,78.6786,165.791,0,0,0,3,0,0,0,165.791,148.2557,2.0831,-17.5353,20,
110,1,2,2,118,1,45.8186,137.9201,229.5456,3,2,1,3,1,0,0,229.5456,212.8932,2.0275,-16.6524,20,
110,1,2,2,119,1,255.7269,226.5693,165.0033,3,2,1,2,0,1,0,226.5693,NaN,100000,999,0,
110,1,2,2,120,0,165.0577,256.1944,317.3095,0,0,0,1,0,0,0,165.0577,151.8418,2.8193,-13.2158,20,
110,1,3,1,121,0,45.3671,17.764,257.0834,0,0,0,2,0,0,0,17.764,78.182,2.1178,60.4181,0,
110,1,3,1,122,1,16.4573,139.8181,285.0819,3,1,2,3,1,0,0,285.0819,291.4029,1.6526,6.3209,30,
110,1,3,1,123,0,17.9325,109.415,228.9559,0,0,0,1,0,0,0,17.9325,152.4067,2.1387,134.4743,0,
110,1,3,1,124,0,288.6023,319.5767,168.6395,0,0,0,3,0,0,0,168.6395,202.47,1.604,33.8305,0,
110,1,3,1,125,1,347.3289,138.8727,108.5212,2,3,1,2,1,0,0,138.8727,144.1609,1.2151,5.2882,30,
110,1,3,1,126,0,105.0866,288.6947,75.2735,0,0,0,3,0,0,0,75.2735,236.7615,2.8746,161.488,0,
110,1,3,1,127,1,105.8021,286.8138,136.3881,3,1,2,3,1,0,0,136.3881,137.5236,1.7081,1.1356,40,
110,1,3,1,128,1,105.4642,76.663,288.4675,1,3,2,1,1,0,0,105.4642,126.9291,1.3609,21.4649,10,
110,1,3,1,129,1,317.8528,16.6178,169.7863,3,1,2,3,1,0,0,169.7863,173.9707,2.2151,4.1844,30,
110,1,3,1,130,1,46.4508,108.429,226.544,2,1,3,3,0,0,1,226.544,218.1794,2.1942,-8.3646,30,
110,1,3,1,131,1,195.1918,106.3284,46.511,2,3,1,2,1,0,0,106.3284,124.7381,0.99992,18.4097,20,
110,1,3,1,132,1,348.7205,136.6838,169.0068,1,2,3,3,0,0,1,169.0068,200.4517,1.5137,31.4449,0,
110,1,3,1,133,1,347.2198,78.5229,199.909,3,1,2,3,1,0,0,199.909,204.2966,2.0415,4.3876,30,
110,1,3,1,134,1,48.0302,79.2868,15.7845,1,3,2,3,0,1,0,15.7845,211.9617,1.5485,-163.8228,0,
110,1,3,1,135,1,316.9259,229.2826,109.6127,2,1,3,1,0,1,0,316.9259,54.4008,1.6943,97.4749,0,
110,1,3,1,136,0,195.0036,317.7327,17.8215,0,0,0,2,0,0,0,317.7327,324.518,2.2776,6.7853,30,
110,1,3,1,137,1,19.5432,345.5759,318.7218,3,2,1,1,0,0,1,19.5432,39.6884,1.9512,20.1452,20,
110,1,3,1,138,0,319.6414,49.4647,107.9935,0,0,0,2,0,0,0,49.4647,43.2784,1.0694,-6.1863,30,
110,1,3,1,139,0,229.6514,108.0118,258.6449,0,0,0,1,0,0,0,229.6514,231.2609,1.2707,1.6094,40,
110,1,3,1,140,1,76.912,166.0858,259.2257,3,2,1,3,1,0,0,259.2257,236.2462,0.95827,-22.9795,10,
110,1,3,1,141,0,135.0349,15.8694,78.8387,0,0,0,2,0,0,0,15.8694,336.1588,1.1249,-39.7106,0,
110,1,3,1,142,0,15.2111,75.7878,196.8068,0,0,0,2,0,0,0,75.7878,161.9854,1.7221,86.1976,0,
110,1,3,1,143,0,18.0791,108.991,169.1012,0,0,0,3,0,0,0,169.1012,213.0223,1.7776,43.9211,0,
110,1,3,1,144,1,346.1677,76.0985,286.2963,2,3,1,2,1,0,0,76.0985,75.3361,1.4374,-0.7624,40,
110,1,3,1,145,1,199.1113,289.3245,166.6937,3,2,1,1,0,0,1,199.1113,152.659,1.4652,-46.4523,0,
110,1,3,1,146,1,16.6498,75.4703,229.1588,3,1,2,3,1,0,0,229.1588,217.3632,1.6249,-11.7956,30,
110,1,3,1,147,1,168.2834,257.6777,45.7402,2,3,1,2,1,0,0,257.6777,235.5387,1.6387,-22.139,10,
110,1,3,1,148,1,168.7562,316.9016,46.3313,2,3,1,2,1,0,0,316.9016,321.9876,1.361,5.086,30,
110,1,3,1,149,1,286.8301,259.2503,319.7088,3,2,1,3,1,0,0,319.7088,305.289,2.3198,-14.4198,20,
110,1,3,1,150,1,169.813,135.4378,16.2783,1,2,3,1,1,0,0,169.813,170.0759,1.8122,0.26295,40,
110,1,3,1,151,0,108.8506,229.1065,285.5739,0,0,0,1,0,0,0,108.8506,148.9332,1.2638,40.0826,0,
110,1,3,1,152,0,75.7997,227.1086,287.7935,0,0,0,2,0,0,0,227.1086,240.2349,2.3817,13.1264,20,
110,1,3,1,153,1,108.4989,226.1455,288.9949,1,2,3,1,1,0,0,108.4989,139.1356,1.0277,30.6367,0,
110,1,3,1,154,1,229.6674,316.0235,345.2026,3,2,1,1,0,0,1,229.6674,137.0389,1.4373,-92.6285,0,
110,1,3,1,155,0,48.8292,318.5057,196.9738,0,0,0,3,0,0,0,196.9738,217.4938,1.8887,20.5199,20,
110,1,3,1,156,0,316.1095,106.1098,287.2353,0,0,0,3,0,0,0,287.2353,296.0659,1.6111,8.8307,30,
110,1,3,1,157,1,256.1583,226.0451,318.0494,2,1,3,2,1,0,0,226.0451,231.0563,1.493,5.0112,30,
110,1,3,1,158,1,195.7293,168.5903,16.4374,3,1,2,3,1,0,0,16.4374,328.4086,1.8395,-48.0287,0,
110,1,3,1,159,1,168.193,287.4894,229.6082,1,3,2,1,1,0,0,168.193,217.4562,1.7221,49.2632,0,
110,1,3,1,160,0,47.1054,79.7742,255.9474,0,0,0,3,0,0,0,255.9474,284.2586,1.354,28.3112,10,
110,1,3,1,161,1,48.0219,169.9816,255.639,2,1,3,2,1,0,0,169.9816,146.6409,0.95819,-23.3407,10,
110,1,3,1,162,0,166.8107,77.7085,105.9141,0,0,0,1,0,0,0,166.8107,145.1893,1.229,-21.6214,10,
110,1,3,1,163,0,228.2537,199.3408,316.7389,0,0,0,2,0,0,0,199.3408,148.7157,2.7358,-50.6251,0,
110,1,3,1,164,1,79.6755,229.2107,168.899,3,2,1,3,1,0,0,168.899,161.4624,1.8262,-7.4365,30,
110,1,3,1,165,0,347.1626,197.4493,315.0263,0,0,0,2,0,0,0,197.4493,209.2396,1.5762,11.7903,30,
110,1,3,1,166,1,76.0121,348.7798,19.7216,1,3,2,1,1,0,0,76.0121,127.226,1.8401,51.2139,0,
110,1,3,1,167,0,289.4188,199.8567,48.159,0,0,0,3,0,0,0,48.159,54.3421,2.3684,6.183,30,
110,1,3,1,168,0,75.6025,109.1368,18.7314,0,0,0,2,0,0,0,109.1368,120.8909,1.4373,11.7541,30,
110,1,3,1,169,0,287.5456,167.9106,135.2279,0,0,0,2,0,0,0,167.9106,126.9673,1.7081,-40.9433,0,
110,1,3,1,170,0,286.6719,319.2714,75.0754,0,0,0,1,0,0,0,286.6719,305.5857,2.0276,18.9138,20,
110,1,3,1,171,1,77.9545,285.0169,137.4278,1,2,3,2,0,1,0,285.0169,313.476,1.486,28.4591,10,
110,1,3,1,172,0,135.095,345.4361,167.0706,0,0,0,1,0,0,0,135.095,150.4082,1.8262,15.3131,20,
110,1,3,1,173,1,166.4906,257.6754,225.8735,3,2,1,2,0,1,0,257.6754,252.6401,3.1038,-5.0353,30,
110,1,3,1,174,1,256.8338,198.2257,48.0853,1,3,2,1,1,0,0,256.8338,232.1442,1.6387,-24.6896,10,
110,1,3,1,175,0,289.4399,49.5661,318.1183,0,0,0,3,0,0,0,318.1183,301.6081,1.729,-16.5101,20,
110,1,3,1,176,0,227.2282,346.9787,169.8509,0,0,0,3,0,0,0,169.8509,320.8875,1.4235,151.0366,0,
110,1,3,1,177,1,77.8421,228.6618,317.0498,3,1,2,3,1,0,0,317.0498,141.8577,3.1038,-175.1921,0,
110,1,3,1,178,1,285.3884,256.3126,136.8142,2,3,1,1,0,0,1,285.3884,137.0518,1.6874,-148.3367,0,
110,1,3,1,179,1,79.469,45.2906,346.6152,3,2,1,3,1,0,0,346.6152,146.0915,4.5203,159.4763,0,
110,1,3,1,180,1,48.3381,288.757,199.864,2,3,1,2,1,0,0,288.757,319.2786,1.1804,30.5216,0,
110,1,4,1,181,1,319.1507,49.1096,286.6385,1,3,2,1,1,0,0,319.1507,327.7253,2.013,8.5746,30,
110,1,4,1,182,1,286.759,196.8689,348.5008,2,3,1,1,0,0,1,286.759,312.4858,2.8538,25.7268,10,
110,1,4,1,183,0,107.5925,78.6014,139.557,0,0,0,3,0,0,0,139.557,299.178,2.6317,159.621,0,
110,1,4,1,184,1,137.0836,195.1206,76.0009,1,3,2,1,1,0,0,137.0836,134.4319,1.0346,-2.6517,40,
110,1,4,1,185,1,256.5881,78.4429,319.3828,2,1,3,2,1,0,0,78.4429,72.5802,1.9512,-5.8627,30,
110,1,4,1,186,1,19.8328,257.5742,289.7055,1,2,3,1,1,0,0,19.8328,201.7595,0.90269,-178.0733,0,
110,1,4,1,187,0,319.9218,76.4011,136.1375,0,0,0,1,0,0,0,319.9218,317.4827,2.4928,-2.4391,40,
110,1,4,1,188,1,139.8512,228.1325,19.258,3,2,1,3,1,0,0,19.258,33.9772,1.7429,14.7193,20,
110,1,4,1,189,0,138.0547,289.0306,255.1701,0,0,0,1,0,0,0,138.0547,147.7383,1.1318,9.6836,30,
110,1,4,1,190,1,318.4735,135.2007,108.6708,1,2,3,2,0,1,0,135.2007,241.5408,2.0282,106.3401,0,
110,1,4,1,191,1,285.3241,258.5009,46.5781,3,2,1,2,0,1,0,258.5009,267.8491,1.736,9.3482,30,
110,1,4,1,192,0,76.3422,47.204,315.4813,0,0,0,1,0,0,0,76.3422,138.6278,1.2498,62.2855,0,
110,1,4,1,193,0,346.8496,19.2383,226.3741,0,0,0,2,0,0,0,19.2383,238.2885,2.2568,-140.9497,0,
110,1,4,1,194,0,319.4716,75.7797,286.5528,0,0,0,1,0,0,0,319.4716,322.7305,1.7567,3.2589,30,
110,1,4,1,195,0,289.7864,195.3463,136.0869,0,0,0,1,0,0,0,289.7864,316.3912,1.4512,26.6048,10,
110,1,4,1,196,1,229.6725,109.8643,315.4473,3,2,1,2,0,1,0,109.8643,241.6576,2.0559,131.7933,0,
110,1,4,1,197,1,135.4925,258.9661,227.8066,2,3,1,3,0,1,0,227.8066,234.0962,1.4652,6.2896,30,
110,1,4,1,198,1,17.2003,78.8124,195.0438,1,2,3,1,1,0,0,17.2003,36.1745,1.5764,18.9742,20,
110,1,4,1,199,1,346.0231,47.6184,226.1865,1,3,2,1,1,0,0,346.0231,337.4281,1.4235,-8.595,30,
110,1,4,1,200,0,196.483,77.1038,346.9809,0,0,0,2,0,0,0,77.1038,65.8915,1.1805,-11.2122,30,
110,1,4,1,201,0,346.3624,15.2497,315.8265,0,0,0,1,0,0,0,346.3624,356.1356,1.9234,9.7732,30,
110,1,4,1,202,1,319.4416,49.9606,256.9191,1,3,2,2,0,0,1,49.9606,51.0789,1.3471,1.1183,40,
110,1,4,1,203,1,228.6893,259.3661,316.6298,1,3,2,2,0,0,1,259.3661,266.3908,2.4372,7.0247,30,
110,1,4,1,204,0,167.9542,256.3643,77.3228,0,0,0,1,0,0,0,167.9542,161.4909,1.9581,-6.4633,30,
110,1,4,1,205,0,229.2203,169.5079,318.8984,0,0,0,2,0,0,0,169.5079,219.5229,2.8678,50.015,0,
110,1,4,1,206,0,106.0757,197.289,287.5851,0,0,0,1,0,0,0,106.0757,138.7939,1.2915,32.7182,0,
110,1,4,1,207,0,107.2912,166.3153,255.921,0,0,0,3,0,0,0,255.921,239.9838,1.5832,-15.9371,20,
110,1,4,1,208,1,319.5876,289.7294,46.7167,1,3,2,1,1,0,0,319.5876,136.2753,1.0971,176.6877,0,
110,1,4,1,209,0,106.5336,227.3643,318.2923,0,0,0,3,0,0,0,318.2923,297.2429,1.8471,-21.0494,10,
110,1,4,1,210,0,76.9959,256.2549,109.9814,0,0,0,1,0,0,0,76.9959,73.2232,1.6804,-3.7727,30,
110,1,4,1,211,0,197.7999,227.8285,137.9923,0,0,0,2,0,0,0,227.8285,232.5899,1.9234,4.7614,30,
110,1,4,1,212,0,199.1692,255.3979,227.0045,0,0,0,1,0,0,0,199.1692,216.344,1.7289,17.1748,20,
110,1,4,1,213,0,228.6097,315.139,346.3304,0,0,0,2,0,0,0,315.139,325.0341,1.3888,9.8951,30,
110,1,4,1,214,0,48.6644,199.7895,225.6489,0,0,0,1,0,0,0,48.6644,218.252,1.0277,169.5876,0,
110,1,4,1,215,1,196.5867,229.1823,169.0975,2,3,1,1,0,0,1,196.5867,215.7645,0.85411,19.1779,20,
110,1,4,1,216,1,77.4603,166.4598,318.313,2,1,3,2,1,0,0,166.4598,2.7488,1.354,-163.7109,0,
110,1,4,1,217,1,18.9262,348.3209,108.6558,1,2,3,1,1,0,0,18.9262,35.3942,1.5138,16.468,20,
110,1,4,1,218,1,259.9226,318.5131,18.7247,3,1,2,3,1,0,0,18.7247,32.8821,1.472,14.1574,20,
110,1,4,1,219,1,229.3481,77.0349,255.4741,1,3,2,2,0,0,1,77.0349,234.9675,3.6796,157.9326,0,
110,1,4,1,220,1,19.736,317.1793,226.306,3,2,1,3,1,0,0,226.306,226.4954,1.5207,0.18933,40,
110,1,4,1,221,0,199.1682,228.0939,45.8544,0,0,0,2,0,0,0,228.0939,225.6731,2.229,-2.4207,40,
110,1,4,1,222,1,76.9181,16.5354,107.062,2,1,3,2,1,0,0,16.5354,19.6754,0.99304,3.14,30,
110,1,4,1,223,1,49.0839,198.551,348.483,2,1,3,3,0,0,1,348.483,165.89,1.4929,177.407,0,
110,1,4,1,224,0,109.0532,49.498,289.4304,0,0,0,1,0,0,0,109.0532,142.0818,1.2013,33.0286,0,
110,1,4,1,225,0,15.3977,108.3505,287.6242,0,0,0,2,0,0,0,108.3505,119.2565,1.4021,10.906,30,
110,1,4,1,226,1,76.2829,316.1748,346.7998,1,2,3,1,1,0,0,76.2829,84.3285,1.4303,8.0456,30,
110,1,4,1,227,0,347.8015,136.9414,196.5129,0,0,0,3,0,0,0,196.5129,198.0633,1.5276,1.5505,40,
110,1,4,1,228,0,287.5805,198.4848,257.2128,0,0,0,3,0,0,0,257.2128,232.8,1.5832,-24.4127,10,
110,1,4,1,229,1,76.7487,169.6823,18.6224,3,2,1,3,1,0,0,18.6224,31.6644,1.8748,13.0419,20,
110,1,4,1,230,1,169.99,197.089,228.8288,2,1,3,3,0,0,1,228.8288,33.9778,1.6873,165.149,0,
110,1,4,1,231,1,76.0219,167.5687,197.3586,3,2,1,3,1,0,0,197.3586,222.4563,1.0352,25.0976,10,
110,1,4,1,232,0,107.9681,315.8429,348.3127,0,0,0,1,0,0,0,107.9681,103.0395,1.6526,-4.9286,30,
110,1,4,1,233,1,345.8325,48.971,285.3122,2,3,1,2,1,0,0,48.971,45.7055,1.3958,-3.2656,30,
110,1,4,1,234,1,286.8011,77.2218,317.1573,2,1,3,2,1,0,0,77.2218,60.2151,1.5623,-17.0067,20,
110,1,4,1,235,1,18.2231,169.175,255.2369,1,2,3,1,1,0,0,18.2231,24.2958,1.5346,6.0727,30,
110,1,4,1,236,0,109.1052,139.1284,346.2755,0,0,0,3,0,0,0,346.2755,151.9398,3.4511,165.6643,0,
110,1,4,1,237,1,319.9823,228.0589,345.0925,2,3,1,3,0,1,0,345.0925,323.229,1.4095,-21.8634,10,
110,1,4,1,238,0,48.3632,226.9539,105.1998,0,0,0,1,0,0,0,48.3632,50.9657,1.1874,2.6025,40,
110,1,4,1,239,1,259.684,109.4295,19.1805,1,2,3,1,1,0,0,259.684,244.185,1.2985,-15.4989,20,
110,1,4,1,240,1,318.0886,255.7351,105.5371,1,2,3,1,1,0,0,318.0886,315.3293,1.7915,-2.7593,40,
110,1,5,1,241,0,135.6957,108.9836,285.6645,0,0,0,1,0,0,0,135.6957,137.4151,1.0835,1.7194,40,
110,1,5,1,242,0,289.6205,137.0813,16.6098,0,0,0,1,0,0,0,289.6205,143.2612,1.1943,-146.3594,0,
110,1,5,1,243,1,105.6849,17.165,349.2011,2,1,3,1,0,1,0,105.6849,131.6327,1.4998,25.9478,10,
110,1,5,1,244,0,287.1638,105.1022,225.7924,0,0,0,2,0,0,0,105.1022,110.633,1.743,5.5308,30,
110,1,5,1,245,0,227.3488,287.3207,78.052,0,0,0,1,0,0,0,227.3488,140.0176,1.5971,-87.3312,0,
110,1,5,1,246,1,288.4321,228.223,105.5927,1,3,2,1,1,0,0,288.4321,307.8987,1.3888,19.4665,20,
110,1,5,1,247,0,167.1625,196.0863,78.5938,0,0,0,2,0,0,0,196.0863,231.473,2.2429,35.3866,0,
110,1,5,1,248,1,168.065,348.5242,139.2691,1,3,2,1,1,0,0,168.065,147.4155,1.4303,-20.6495,20,
110,1,5,1,249,0,166.3544,106.2473,199.6774,0,0,0,2,0,0,0,106.2473,135.1751,1.1735,28.9277,10,
110,1,5,1,250,1,19.7248,199.2446,45.5075,3,1,2,1,0,1,0,19.7248,41.8274,1.6456,22.1025,10,
110,1,5,1,251,1,108.1943,46.5797,165.3894,2,3,1,2,1,0,0,46.5797,230.0308,1.3193,-176.5489,0,
110,1,5,1,252,1,18.7609,197.4369,107.1016,3,2,1,1,0,0,1,18.7609,35.4104,1.861,16.6495,20,
110,1,5,1,253,1,228.1132,318.3164,348.2657,2,1,3,2,1,0,0,318.3164,140.1871,1.0345,-178.1293,0,
110,1,5,1,254,0,76.4339,347.459,197.7996,0,0,0,1,0,0,0,76.4339,57.6761,1.2985,-18.7577,20,
110,1,5,1,255,0,107.0625,165.9279,75.1195,0,0,0,3,0,0,0,75.1195,43.245,1.4584,-31.8745,0,
110,1,5,1,256,1,258.1489,289.1489,346.2885,1,3,2,2,0,0,1,289.1489,127.7425,1.3055,-161.4064,0,
110,1,5,1,257,1,316.9612,139.4658,348.3172,1,3,2,1,1,0,0,316.9612,317.8807,1.2638,0.91952,40,
110,1,5,1,258,1,228.6563,79.5999,137.4769,3,1,2,3,1,0,0,137.4769,302.9121,2.8192,165.4353,0,
110,1,5,1,259,0,79.0563,318.7934,17.1159,0,0,0,2,0,0,0,318.7934,322.1078,1.4164,3.3144,30,
110,1,5,1,260,1,106.2942,137.8854,167.3378,1,2,3,1,1,0,0,106.2942,127.6973,1.111,21.4031,10,
110,1,5,1,261,0,288.4504,47.585,345.9817,0,0,0,2,0,0,0,47.585,138.2849,1.236,90.6999,0,
110,1,5,1,262,1,228.8305,49.5527,167.3951,1,2,3,3,0,0,1,167.3951,287.7293,1.715,120.3343,0,
110,1,5,1,263,1,195.887,46.9796,287.4608,2,1,3,2,1,0,0,46.9796,53.9769,1.3679,6.9973,30,
110,1,5,1,264,0,259.2475,78.2639,347.5938,0,0,0,2,0,0,0,78.2639,240.8537,2.1595,162.5899,0,
110,1,5,1,265,0,109.2478,46.192,195.5791,0,0,0,2,0,0,0,46.192,69.872,1.8123,23.68,10,
110,1,5,1,266,1,108.0933,49.9801,345.0676,2,3,1,2,1,0,0,49.9801,57.852,1.3471,7.8719,30,
110,1,5,1,267,1,285.1394,109.4368,229.5828,1,2,3,2,0,1,0,109.4368,72.7184,1.1595,-36.7184,0,
110,1,5,1,268,1,166.8407,345.8715,48.8406,2,3,1,2,1,0,0,345.8715,91.1909,1.2291,105.3194,0,
110,1,5,1,269,1,349.8504,167.6536,46.7037,2,3,1,2,1,0,0,167.6536,150.3198,1.3193,-17.3338,20,
110,1,5,1,270,1,165.1437,316.794,199.3211,1,3,2,2,0,0,1,316.794,114.5411,1.3055,157.7471,0,
110,1,5,1,271,0,106.2118,345.9783,138.4999,0,0,0,2,0,0,0,345.9783,321.4112,1.3956,-24.5671,10,
110,1,5,1,272,1,288.4404,49.9428,135.3017,3,1,2,3,1,0,0,135.3017,143.5402,1.7152,8.2386,30,
110,1,5,1,273,1,347.8252,107.7252,79.8696,1,3,2,1,1,0,0,347.8252,327.7857,1.3888,-20.0396,20,
110,1,5,1,274,1,287.0698,139.6229,17.282,3,1,2,2,0,0,1,139.6229,332.3631,1.8262,-167.2598,0,
110,1,5,1,275,1,345.8267,49.9573,285.3367,3,1,2,3,1,0,0,285.3367,304.2303,1.6457,18.8936,20,
110,1,5,1,276,1,346.9718,109.405,316.4648,2,1,3,1,0,1,0,346.9718,332.8098,1.5484,-14.1621,20,
110,1,5,1,277,0,319.7698,285.3432,136.7088,0,0,0,3,0,0,0,136.7088,136.5938,1.9719,-0.11503,40,
110,1,5,1,278,0,16.5731,165.8092,255.2115,0,0,0,3,0,0,0,255.2115,134.0198,1.972,-121.1917,0,
110,1,5,1,279,1,166.3119,135.2038,288.2441,2,3,1,2,1,0,0,135.2038,229.4739,2.2427,94.2702,0,
110,1,5,1,280,1,78.2531,198.1727,136.4908,2,1,3,2,1,0,0,198.1727,216.1516,1.972,17.9789,20,
110,1,5,1,281,1,318.8216,346.4861,167.4867,3,1,2,3,1,0,0,167.4867,163.7407,1.4443,-3.746,30,
110,1,5,1,282,0,346.244,108.5655,138.6674,0,0,0,1,0,0,0,346.244,333.4999,2.1456,-12.7441,20,
110,1,5,1,283,1,75.4637,285.1052,227.6462,3,1,2,1,0,1,0,75.4637,114.1326,3.2079,38.6689,0,
110,1,5,1,284,0,198.0859,19.0835,138.0043,0,0,0,3,0,0,0,138.0043,139.2165,2.2573,1.2122,40,
110,1,5,1,285,1,15.477,49.9249,257.1158,2,1,3,2,1,0,0,49.9249,50.6779,0.92354,0.75305,40,
110,1,5,1,286,0,255.1046,287.9587,165.198,0,0,0,3,0,0,0,165.198,157.7217,1.9511,-7.4763,30,
110,1,5,1,287,0,79.3242,349.8035,19.5499,0,0,0,3,0,0,0,19.5499,4.9589,2.3122,-14.5909,20,
110,1,5,1,288,1,196.9551,285.5794,46.5419,3,2,1,3,1,0,0,46.5419,38.8634,2.1942,-7.6785,30,
110,1,5,1,289,0,17.8394,139.1235,229.8291,0,0,0,2,0,0,0,139.1235,138.3435,1.4999,-0.77998,40,
110,1,5,1,290,0,105.1774,16.1086,49.0408,0,0,0,2,0,0,0,16.1086,129.2791,1.3957,113.1705,0,
110,1,5,1,291,1,135.911,347.063,255.8389,3,1,2,1,0,1,0,135.911,146.0915,1.2846,10.1805,30,
110,1,5,1,292,1,347.4942,105.9765,319.8191,1,2,3,3,0,0,1,319.8191,300.9109,2.4587,-18.9082,20,
110,1,5,1,293,1,227.5388,76.9713,316.9141,3,1,2,3,1,0,0,316.9141,302.5686,1.2985,-14.3454,20,
110,1,5,1,294,0,227.1475,258.4805,196.0925,0,0,0,2,0,0,0,258.4805,239.8213,1.4305,-18.6592,20,
110,1,5,1,295,1,287.6638,17.7888,198.4672,2,3,1,2,1,0,0,17.7888,229.2864,2.1735,-148.5024,0,
110,1,5,1,296,0,347.5182,45.635,286.5259,0,0,0,3,0,0,0,286.5259,297.0444,1.3402,10.5185,30,
110,1,5,1,297,1,47.4659,349.1507,229.5924,2,1,3,1,0,1,0,47.4659,53.1527,1.2569,5.6868,30,
110,1,5,1,298,0,108.3954,138.5708,195.688,0,0,0,3,0,0,0,195.688,136.2937,1.2501,-59.3943,0,
110,1,5,1,299,1,16.6666,197.275,45.042,2,3,1,2,1,0,0,197.275,205.668,1.3401,8.393,30,
110,1,5,1,300,1,168.6076,228.1828,49.729,1,2,3,1,1,0,0,168.6076,51.0312,1.1596,-117.5764,0,
110,1,6,1,301,1,349.276,289.6534,318.8978,1,2,3,1,1,0,0,349.276,339.8769,1.2493,-9.3991,30,
110,1,6,1,302,1,169.7503,18.0276,79.0528,1,2,3,3,0,0,1,79.0528,48.228,1.5479,-30.8248,0,
110,1,6,1,303,1,348.8026,255.6956,48.0353,1,3,2,1,1,0,0,348.8026,330.8796,1.7359,-17.923,20,
110,1,6,1,304,1,79.2567,136.2341,317.157,2,3,1,3,0,1,0,317.157,322.0684,2.3886,4.9115,30,
110,1,6,1,305,1,138.6301,77.9276,289.761,1,3,2,1,1,0,0,138.6301,151.3296,1.1943,12.6995,20,
110,1,6,1,306,0,167.9562,257.4806,347.4647,0,0,0,1,0,0,0,167.9562,156.288,1.8123,-11.6682,30,
110,1,6,1,307,1,76.1141,315.1313,285.9054,1,3,2,1,1,0,0,76.1141,143.7776,1.4026,67.6636,0,
110,1,6,1,308,1,315.4429,108.7977,345.3481,3,1,2,3,1,0,0,345.3481,329.7526,1.3472,-15.5955,20,
110,1,6,1,309,1,319.3995,196.8921,289.1325,1,3,2,3,0,1,0,289.1325,326.3768,1.2568,37.2443,0,
110,1,6,1,310,1,258.4335,226.7967,286.5474,2,3,1,2,1,0,0,226.7967,234.1009,1.8538,7.3042,30,
110,1,6,1,311,1,17.3162,77.2873,167.9481,3,2,1,3,1,0,0,167.9481,180.5333,1.4304,12.5852,20,
110,1,6,1,312,1,195.4627,287.4819,106.1432,3,1,2,3,1,0,0,106.1432,127.8833,2.3747,21.7401,10,
110,1,6,1,313,1,76.5699,17.8829,345.6083,2,1,3,2,1,0,0,17.8829,60.403,1.2985,42.5201,0,
110,1,6,1,314,0,138.0818,79.8007,45.1939,0,0,0,1,0,0,0,138.0818,150.268,1.1804,12.1862,20,
110,1,6,1,315,1,48.7453,288.6061,17.6153,3,2,1,3,1,0,0,17.6153,41.5903,1.4512,23.9751,10,
110,1,6,1,316,1,76.7276,135.3013,47.2202,3,1,2,1,0,1,0,76.7276,65.8217,1.5762,-10.9059,30,
110,1,6,1,317,1,135.7664,18.2568,105.8025,2,1,3,2,1,0,0,18.2568,46.5361,2.5969,28.2793,10,
110,1,6,1,318,0,46.8303,76.5296,108.0191,0,0,0,3,0,0,0,108.0191,65.8993,2.1248,-42.1198,0,
110,1,6,1,319,0,289.7642,46.6762,258.468,0,0,0,3,0,0,0,258.468,291.2938,2.7775,32.8259,0,
110,1,6,1,320,1,347.7297,168.1533,256.9656,1,2,3,1,1,0,0,347.7297,330.4646,1.2083,-17.265,20,
110,1,6,1,321,0,197.2314,258.9811,49.0688,0,0,0,3,0,0,0,49.0688,236.5905,1.0345,-172.4784,0,
110,1,6,1,322,0,166.4604,195.4281,108.228,0,0,0,1,0,0,0,166.4604,146.0301,1.0138,-20.4303,20,
110,1,6,1,323,0,228.4831,319.3725,47.8385,0,0,0,1,0,0,0,228.4831,219.9621,0.91662,-8.521,30,
110,1,6,1,324,0,348.7871,45.0393,106.3275,0,0,0,3,0,0,0,106.3275,146.9212,2.7221,40.5937,0,
110,1,6,1,325,1,45.5714,107.1663,76.4239,3,1,2,2,0,0,1,107.1663,235.9189,1.8401,128.7526,0,
110,1,6,1,326,1,49.5589,349.7847,196.7966,3,2,1,3,1,0,0,196.7966,208.998,1.5832,12.2014,20,
110,1,6,1,327,1,348.8138,168.6138,199.2722,2,1,3,2,1,0,0,168.6138,144.5945,1.1804,-24.0193,10,
110,1,6,1,328,0,78.2539,199.2359,106.7295,0,0,0,3,0,0,0,106.7295,204.7278,1.59,97.9982,0,
110,1,6,1,329,1,76.845,47.1161,17.8572,1,3,2,1,1,0,0,76.845,117.619,1.2082,40.774,0,
110,1,6,1,330,1,256.9032,46.848,228.7657,2,1,3,1,0,1,0,256.9032,95.1802,2.2637,-161.723,0,
110,1,6,1,331,0,315.9509,345.0095,49.2889,0,0,0,3,0,0,0,49.2889,219.6721,2.1733,170.3832,0,
110,1,6,1,332,1,49.7089,18.4318,196.6558,3,2,1,2,0,1,0,18.4318,228.4307,1.604,-150.0011,0,
110,1,6,1,333,1,108.3529,316.4577,256.6174,2,1,3,2,1,0,0,316.4577,59.8157,2.2706,103.358,0,
110,1,6,1,334,1,348.0766,49.1223,287.0703,1,2,3,1,1,0,0,348.0766,148.5226,1.0764,160.446,0,
110,1,6,1,335,0,317.7201,255.9044,346.3804,0,0,0,2,0,0,0,255.9044,250.7432,1.6249,-5.1611,30,
110,1,6,1,336,0,135.7551,227.0511,289.4652,0,0,0,3,0,0,0,289.4652,297.8718,1.9095,8.4066,30,
110,1,6,1,337,1,108.0557,258.5258,345.1416,3,2,1,3,1,0,0,345.1416,307.5146,1.0416,-37.627,0,
110,1,6,1,338,0,349.3055,317.223,286.933,0,0,0,1,0,0,0,349.3055,339.5542,1.2429,-9.7514,30,
110,1,6,1,339,1,289.2184,139.4593,48.4279,2,1,3,2,1,0,0,139.4593,140.1885,0.99982,0.72919,40,
110,1,6,1,340,1,107.1287,259.3308,167.4032,3,1,2,3,1,0,0,167.4032,163.0826,1.1526,-4.3206,30,
110,1,6,1,341,0,259.2239,106.175,47.5414,0,0,0,2,0,0,0,106.175,139.6096,1.8124,33.4345,0,
110,1,6,1,342,0,286.65,258.7524,48.9783,0,0,0,3,0,0,0,48.9783,49.2327,1.6596,0.25444,40,
110,1,6,1,343,0,46.7631,288.5474,17.9435,0,0,0,3,0,0,0,17.9435,43.687,1.5067,25.7435,10,
110,1,6,1,344,1,136.7238,19.2851,166.4328,2,1,3,2,1,0,0,19.2851,349.9465,0.90964,-29.3385,10,
110,1,6,1,345,1,169.0589,257.2943,108.3798,1,3,2,3,0,1,0,108.3798,127.9832,1.5831,19.6034,20,
110,1,6,1,346,1,255.9856,166.1645,286.676,3,1,2,2,0,0,1,166.1645,188.0257,2.3331,21.8613,10,
110,1,6,1,347,1,319.7687,198.8048,165.2789,2,3,1,2,1,0,0,198.8048,202.0566,1.486,3.2518,30,
110,1,6,1,348,1,109.3766,17.0994,229.6522,3,1,2,3,1,0,0,229.6522,228.1925,1.6179,-1.4597,40,
110,1,6,1,349,0,199.938,258.8847,318.5844,0,0,0,1,0,0,0,199.938,215.3451,1.486,15.4071,20,
110,1,6,1,350,1,347.053,318.8349,48.9335,1,2,3,3,0,0,1,48.9335,46.1547,3.1461,-2.7788,40,
110,1,6,1,351,1,195.9885,47.393,79.4445,3,2,1,1,0,0,1,195.9885,207.6785,0.87492,11.69,30,
110,1,6,1,352,1,167.5783,45.0642,79.143,2,3,1,3,0,1,0,79.143,124.8903,1.6734,45.7473,0,
110,1,6,1,353,1,258.7937,135.4168,197.5637,1,2,3,1,1,0,0,258.7937,239.9662,1.7081,-18.8275,20,
110,1,6,1,354,0,135.6245,75.2559,258.1976,0,0,0,1,0,0,0,135.6245,149.7724,0.94435,14.1479,20,
110,1,6,1,355,1,18.7479,107.9057,169.7624,2,3,1,2,1,0,0,107.9057,219.148,1.9164,111.2423,0,
110,1,6,1,356,0,318.0068,49.3424,199.0784,0,0,0,2,0,0,0,49.3424,227.9163,1.5831,178.5738,0,
110,1,6,1,357,1,347.3046,136.755,108.0261,3,2,1,3,1,0,0,108.0261,131.1611,1.5138,23.135,10,
110,1,6,1,358,1,137.5036,257.6435,105.0708,3,2,1,3,1,0,0,105.0708,130.0609,1.4241,24.9901,10,
110,1,6,1,359,0,15.3835,46.5001,105.5262,0,0,0,2,0,0,0,46.5001,62.8638,1.6873,16.3637,20,
110,1,6,1,360,1,137.304,167.061,199.7356,1,2,3,2,0,1,0,167.061,74.8855,1.4304,-92.1756,0,
110,1,7,2,361,1,198.5388,255.7908,109.8841,1,2,3,3,0,0,1,109.8841,136.0434,1.2498,26.1593,10,
110,1,7,2,362,1,228.3049,318.7755,107.5883,3,2,1,3,1,0,0,107.5883,145.2555,1.7705,37.6672,0,
110,1,7,2,363,1,227.5244,48.3865,319.0119,1,2,3,1,1,0,0,227.5244,225.1493,3.0552,-2.3752,40,
110,1,7,2,364,1,47.8729,198.636,229.3965,3,1,2,1,0,1,0,47.8729,NaN,100000,999,0,
110,1,7,2,365,0,226.3707,75.4554,168.3297,0,0,0,2,0,0,0,75.4554,235.7076,2.4094,160.2521,0,
110,1,7,2,366,1,255.7149,196.3639,49.8544,3,1,2,3,1,0,0,49.8544,50.7316,1.4443,0.87726,40,
110,1,7,2,367,1,225.4717,199.0995,316.8737,3,2,1,3,1,0,0,316.8737,301.3739,1.2707,-15.4998,20,
110,1,7,2,368,0,165.0584,108.9805,255.9107,0,0,0,1,0,0,0,165.0584,140.5962,3.326,-24.4622,10,
110,1,7,2,369,1,18.1968,49.1557,318.5436,3,1,2,3,1,0,0,318.5436,329.9237,0.95834,11.3801,30,
110,1,7,2,370,0,15.8828,135.3205,228.4285,0,0,0,2,0,0,0,135.3205,135.1096,1.7915,-0.2109,40,
110,1,7,2,371,1,227.3627,15.6079,166.3986,1,2,3,1,1,0,0,227.3627,217.7225,1.1596,-9.6402,30,
110,1,7,2,372,0,75.834,287.2981,199.5892,0,0,0,3,0,0,0,199.5892,206.5498,1.2568,6.9606,30,
110,1,7,2,373,1,165.477,288.9474,18.5358,1,2,3,3,0,0,1,18.5358,16.7795,1.2012,-1.7563,40,
110,1,7,2,374,0,229.7738,195.9716,257.3334,0,0,0,2,0,0,0,195.9716,211.3429,1.7706,15.3713,20,
110,1,7,2,375,0,197.6767,107.8332,75.5793,0,0,0,1,0,0,0,197.6767,213.6529,1.4305,15.9761,20,
110,1,7,2,376,0,199.0995,107.7721,288.9407,0,0,0,3,0,0,0,288.9407,295.1546,1.5484,6.2139,30,
110,1,7,2,377,1,167.3544,108.1335,136.0414,2,3,1,1,0,0,1,167.3544,171.9259,1.0624,4.5716,30,
110,1,7,2,378,1,136.2911,47.1604,165.1779,2,1,3,2,1,0,0,47.1604,120.6551,1.2429,73.4947,0,
110,1,7,2,379,1,167.2274,15.1121,78.8827,1,2,3,1,1,0,0,167.2274,161.1235,0.88186,-6.1039,30,
110,1,7,2,380,0,347.0676,316.6174,256.7231,0,0,0,3,0,0,0,256.7231,138.4715,3.0136,-118.2516,0,
110,1,7,2,381,1,139.2648,79.7287,225.5912,1,2,3,1,1,0,0,139.2648,146.8971,1.0554,7.6322,30,
110,1,7,2,382,1,46.9562,17.8105,349.7842,2,3,1,3,0,1,0,349.7842,NaN,100000,999,0,
110,1,7,2,383,1,349.3938,16.6495,45.9701,2,3,1,2,1,0,0,16.6495,224.8069,1.2012,-151.8427,0,
110,1,7,2,384,0,345.4379,106.2488,16.3081,0,0,0,1,0,0,0,345.4379,7.2748,1.9997,21.8369,10,
110,1,7,2,385,1,166.3045,197.6022,15.1703,3,2,1,2,0,1,0,197.6022,NaN,100000,999,0,
110,1,7,2,386,1,196.0469,228.681,257.0305,1,3,2,1,1,0,0,196.0469,223.2481,0.9791,27.2012,10,
110,1,7,2,387,1,319.7509,288.9214,105.3713,3,1,2,3,1,0,0,105.3713,123.2804,1.5414,17.9091,20,
110,1,7,2,388,0,135.5174,286.1066,229.2508,0,0,0,3,0,0,0,229.2508,133.4974,1.5554,-95.7534,0,
110,1,7,2,389,1,195.4797,48.2247,257.4806,2,3,1,2,1,0,0,48.2247,53.3739,1.056,5.1492,30,
110,1,7,2,390,1,319.877,258.4904,166.2298,1,2,3,1,1,0,0,319.877,322.6044,1.3886,2.7274,40,
110,1,7,2,391,0,196.8362,165.0846,46.1772,0,0,0,2,0,0,0,165.0846,60.4221,2.2012,-104.6624,0,
110,1,7,2,392,0,78.4084,45.9453,197.3613,0,0,0,3,0,0,0,197.3613,217.7269,1.1943,20.3656,20,
110,1,7,2,393,1,348.2589,259.4634,197.2511,1,3,2,1,1,0,0,348.2589,323.1889,1.8748,-25.07,10,
110,1,7,2,394,0,287.5291,227.399,348.5527,0,0,0,3,0,0,0,348.5527,330.8587,0.75692,-17.6941,20,
110,1,7,2,395,1,347.9773,318.0348,108.2215,2,3,1,2,1,0,0,318.0348,321.4451,1.479,3.4103,30,
110,1,7,2,396,1,48.7538,19.8263,169.3337,3,2,1,2,0,1,0,19.8263,NaN,100000,999,0,
110,1,7,2,397,1,345.4162,45.9876,199.484,1,2,3,1,1,0,0,345.4162,324.8636,1.9095,-20.5526,20,
110,1,7,2,398,0,77.6311,257.6825,318.5624,0,0,0,2,0,0,0,257.6825,250.0226,1.8886,-7.66,30,
110,1,7,2,399,1,106.4033,169.3439,319.0106,2,3,1,1,0,0,1,106.4033,129.1729,1.5207,22.7696,10,
110,1,7,2,400,1,166.8531,318.2446,137.8389,3,2,1,3,1,0,0,137.8389,300.8448,1.0972,163.0059,0,
110,1,7,2,401,1,109.0131,46.8789,195.2394,2,1,3,2,1,0,0,46.8789,71.1515,1.3958,24.2726,10,
110,1,7,2,402,1,289.222,165.6705,19.4065,3,2,1,1,0,0,1,289.222,314.2625,1.3888,25.0405,10,
110,1,7,2,403,1,165.0021,15.0146,79.6285,3,2,1,3,1,0,0,79.6285,54.7109,1.6597,-24.9176,10,
110,1,7,2,404,1,17.9009,107.4646,77.7947,1,3,2,2,0,0,1,107.4646,126.7931,1.3471,19.3284,20,
110,1,7,2,405,1,289.1558,77.0112,137.5159,2,1,3,2,1,0,0,77.0112,74.9674,1.0555,-2.0439,40,
110,1,7,2,406,1,256.7734,346.949,137.9254,3,1,2,3,1,0,0,137.9254,143.056,2.7219,5.1306,30,
110,1,7,2,407,0,347.2501,138.4776,48.5297,0,0,0,2,0,0,0,138.4776,139.4212,1.118,0.94356,40,
110,1,7,2,408,0,48.7984,137.736,168.8891,0,0,0,1,0,0,0,48.7984,48.5335,1.3465,-0.26493,40,
110,1,7,2,409,0,347.1964,77.6894,255.2459,0,0,0,2,0,0,0,77.6894,229.383,1.9927,151.6936,0,
110,1,7,2,410,1,319.2934,289.4537,75.7854,2,1,3,1,0,1,0,319.2934,NaN,100000,999,0,
110,1,7,2,411,0,346.4156,258.1117,285.5164,0,0,0,3,0,0,0,285.5164,145.7429,1.4999,-139.7735,0,
110,1,7,2,412,0,349.3846,168.8403,78.4254,0,0,0,2,0,0,0,168.8403,142.3773,1.4373,-26.463,10,
110,1,7,2,413,1,76.3235,259.4508,225.252,1,2,3,2,0,1,0,259.4508,NaN,100000,999,0,
110,1,7,2,414,0,318.9071,109.8242,346.1235,0,0,0,3,0,0,0,346.1235,331.2029,1.361,-14.9206,20,
110,1,7,2,415,1,345.0028,199.5211,75.7941,1,2,3,3,0,0,1,75.7941,164.838,1.4576,89.044,0,
110,1,7,2,416,0,347.0965,108.2064,225.63,0,0,0,2,0,0,0,108.2064,124.733,1.4095,16.5266,20,
110,1,7,2,417,1,256.8705,108.5109,15.9167,2,1,3,2,1,0,0,108.5109,123.5473,1.2846,15.0364,20,
110,1,7,2,418,1,106.3591,228.5253,48.3932,2,3,1,2,1,0,0,228.5253,208.7361,1.8888,-19.7892,20,
110,1,7,2,419,1,76.4711,285.5173,255.1054,3,1,2,1,0,1,0,76.4711,NaN,100000,999,0,
110,1,7,2,420,1,78.9722,196.8961,319.4619,3,2,1,3,1,0,0,319.4619,327.6815,0.8263,8.2196,30,
110,1,8,2,421,1,346.1694,138.926,199.3548,1,2,3,2,0,1,0,138.926,NaN,100000,999,0,
110,1,8,2,422,1,108.9719,316.758,286.6712,2,1,3,2,1,0,0,316.758,120.6168,0.97213,163.8588,0,
110,1,8,2,423,0,288.9241,345.9003,316.63,0,0,0,2,0,0,0,345.9003,138.93,1.2151,153.0297,0,
110,1,8,2,424,1,167.0112,318.2278,48.0535,3,2,1,3,1,0,0,48.0535,46.1341,1.4374,-1.9194,40,
110,1,8,2,425,1,19.1508,107.275,197.0279,3,1,2,1,0,1,0,19.1508,NaN,100000,999,0,
110,1,8,2,426,0,317.7142,287.6453,198.7701,0,0,0,2,0,0,0,287.6453,289.7459,2.1944,2.1006,40,
110,1,8,2,427,1,166.6075,345.8089,138.7094,3,1,2,3,1,0,0,138.7094,149.6782,1.0624,10.9689,30,
110,1,8,2,428,1,257.4661,166.7634,108.0595,1,3,2,2,0,0,1,166.7634,317.4934,1.3402,150.73,0,
110,1,8,2,429,0,46.7664,105.9197,317.8253,0,0,0,3,0,0,0,317.8253,329.7604,1.4165,11.9351,30,
110,1,8,2,430,0,316.2826,226.5869,345.6649,0,0,0,2,0,0,0,226.5869,236.2808,1.6179,9.6939,30,
110,1,8,2,431,0,318.8858,136.2459,197.6585,0,0,0,2,0,0,0,136.2459,146.8375,1.125,10.5916,30,
110,1,8,2,432,0,196.5339,168.3692,15.2808,0,0,0,1,0,0,0,196.5339,205.0308,1.4581,8.4969,30,
110,1,8,2,433,1,255.8013,286.1659,15.8192,1,2,3,1,1,0,0,255.8013,244.9413,1.4096,-10.8599,30,
110,1,8,2,434,1,49.8423,256.4504,195.0787,2,1,3,2,1,0,0,256.4504,307.7898,1.4304,51.3394,0,
110,1,8,2,435,0,168.1037,255.826,346.6466,0,0,0,1,0,0,0,168.1037,166.2608,1.1874,-1.8429,40,
110,1,8,2,436,1,167.0257,319.4432,17.8753,3,1,2,1,0,1,0,167.0257,NaN,100000,999,0,
110,1,8,2,437,0,18.741,228.124,108.6405,0,0,0,2,0,0,0,228.124,252.1326,1.5554,24.0086,10,
110,1,8,2,438,0,317.32,168.8455,256.6747,0,0,0,2,0,0,0,168.8455,137.6622,1.9233,-31.1833,0,
110,1,8,2,439,0,255.6531,106.225,19.3318,0,0,0,1,0,0,0,255.6531,228.5562,4.6314,-27.0969,10,
110,1,8,2,440,1,259.9968,49.8928,18.8239,1,3,2,1,1,0,0,259.9968,248.6483,0.92358,-11.3485,30,
110,1,8,2,441,1,225.2548,346.4091,15.6676,2,3,1,3,0,1,0,15.6676,NaN,100000,999,0,
110,1,8,2,442,0,106.3592,135.8795,348.878,0,0,0,1,0,0,0,106.3592,118.9401,1.0486,12.5809,20,
110,1,8,2,443,0,17.0797,198.9739,349.3836,0,0,0,3,0,0,0,349.3836,323.2954,1.2221,-26.0883,10,
110,1,8,2,444,1,229.0337,77.2781,107.936,3,1,2,3,1,0,0,107.936,130.9934,1.7498,23.0573,10,
110,1,8,2,445,1,345.4404,139.5373,196.9928,3,2,1,1,0,0,1,345.4404,51.0893,2.6733,65.6488,0,
110,1,8,2,446,1,16.3998,288.0065,256.3468,3,1,2,3,1,0,0,256.3468,226.1988,2.9094,-30.148,0,
110,1,8,2,447,0,257.2917,136.6432,169.9564,0,0,0,1,0,0,0,257.2917,269.0414,1.4582,11.7497,30,
110,1,8,2,448,0,346.9137,48.6526,108.7309,0,0,0,2,0,0,0,48.6526,240.4418,1.5415,-168.2108,0,
110,1,8,2,449,1,195.6123,315.7137,16.8821,2,3,1,1,0,0,1,195.6123,36.9778,1.465,-158.6345,0,
110,1,8,2,450,0,259.9911,109.775,347.5666,0,0,0,3,0,0,0,347.5666,321.333,1.4096,-26.2336,10,
110,1,8,2,451,1,48.9206,255.8028,195.7729,3,1,2,3,1,0,0,195.7729,329.1484,0.63187,133.3755,0,
110,1,8,2,452,0,229.5021,285.9138,79.6101,0,0,0,1,0,0,0,229.5021,223.7852,1.5623,-5.7169,30,
110,1,8,2,453,1,46.9212,109.2804,16.7781,2,1,3,2,1,0,0,109.2804,120.0036,0.91655,10.7232,30,
110,1,8,2,454,1,285.5753,137.4622,167.1664,1,3,2,1,1,0,0,285.5753,290.1433,1.6248,4.568,30,
110,1,8,2,455,1,225.7687,107.1047,345.2205,3,2,1,3,1,0,0,345.2205,337.9761,1.3263,-7.2444,30,
110,1,8,2,456,1,259.544,198.8611,345.6215,2,3,1,3,0,1,0,345.6215,NaN,100000,999,0,
110,1,8,2,457,1,259.1287,317.8346,47.8808,3,1,2,3,1,0,0,47.8808,48.717,1.111,0.83628,40,
110,1,8,2,458,1,345.2443,139.0659,256.0072,1,3,2,1,1,0,0,345.2443,334.7721,1.0973,-10.4722,30,
110,1,8,2,459,0,75.6716,225.2684,316.0299,0,0,0,2,0,0,0,225.2684,245.6919,2.8191,20.4234,20,
110,1,8,2,460,0,318.9342,79.1196,16.9142,0,0,0,1,0,0,0,318.9342,321.9867,1.4513,3.0525,30,
110,1,8,2,461,0,137.6481,259.4322,199.0779,0,0,0,3,0,0,0,199.0779,217.4141,1.3819,18.3363,20,
110,1,8,2,462,0,285.2241,46.6735,79.0129,0,0,0,3,0,0,0,79.0129,116.2092,1.3888,37.1963,0,
110,1,8,2,463,1,257.1099,198.1514,285.1967,3,1,2,3,1,0,0,285.1967,297.2206,1.1387,12.0238,20,
110,1,8,2,464,0,345.5319,225.4823,316.9794,0,0,0,2,0,0,0,225.4823,220.3124,2.3817,-5.1699,30,
110,1,8,2,465,0,225.1487,349.2081,288.7696,0,0,0,3,0,0,0,288.7696,306.2971,0.96519,17.5275,20,
110,1,8,2,466,0,139.8569,76.621,16.013,0,0,0,2,0,0,0,76.621,90.8229,0.98594,14.2019,20,
110,1,8,2,467,0,256.5495,196.6591,345.933,0,0,0,2,0,0,0,196.6591,206.9196,1.354,10.2605,30,
110,1,8,2,468,1,137.3453,345.5207,76.8608,1,3,2,1,1,0,0,137.3453,150.5804,0.93751,13.2351,20,
110,1,8,2,469,1,198.1184,15.3786,256.4987,1,3,2,1,1,0,0,198.1184,203.9843,1.8262,5.8659,30,
110,1,8,2,470,1,319.5611,197.8195,168.9727,1,2,3,1,1,0,0,319.5611,321.8762,1.1111,2.3151,40,
110,1,8,2,471,1,287.9795,199.0172,76.1351,1,2,3,1,1,0,0,287.9795,313.2799,1.3749,25.3004,10,
110,1,8,2,472,1,166.389,315.5156,75.9487,1,3,2,1,1,0,0,166.389,139.7069,0.97211,-26.6822,10,
110,1,8,2,473,1,196.2629,17.998,166.2065,3,2,1,3,1,0,0,166.2065,180.4095,1.6387,14.203,20,
110,1,8,2,474,1,319.9973,78.3677,197.7492,2,1,3,3,0,0,1,197.7492,182.4281,1.7707,-15.3211,20,
110,1,8,2,475,1,346.695,318.6023,139.507,3,2,1,3,1,0,0,139.507,165.9993,1.5623,26.4923,10,
110,1,8,2,476,0,318.3723,49.6626,259.9424,0,0,0,1,0,0,0,318.3723,322.2915,1.5484,3.9192,30,
110,1,8,2,477,0,49.9161,226.8259,76.3773,0,0,0,3,0,0,0,76.3773,59.1225,1.9998,-17.2548,20,
110,1,8,2,478,1,165.5087,227.7993,255.6139,1,3,2,3,0,1,0,255.6139,NaN,100000,999,0,
110,1,8,2,479,0,75.9708,259.7944,19.7697,0,0,0,2,0,0,0,259.7944,269.5965,1.7637,9.8022,30,
110,1,8,2,480,0,347.2661,46.5168,135.6348,0,0,0,1,0,0,0,347.2661,348.8021,1.5415,1.5361,40,
