Subject,Session,Block,Condition,Trial,whetherCued,leftStim,rightStim,midStim,remCueLoc,fogCueLoc,neutralCueLoc,probeCueLoc,probeRem,probeForget,probeNeutral,Target,Estimate,RT,Error,Points
113,1,1,1,1,0,49.7896,79.9464,316.1134,0,0,0,2,0,0,0,79.9464,130.0956,1.8122,50.1492,0,
113,1,1,1,2,1,77.0194,199.4614,227.103,3,1,2,3,1,0,0,227.103,239.9442,1.3887,12.8412,20,
113,1,1,1,3,0,107.3167,76.231,48.7899,0,0,0,1,0,0,0,107.3167,57.2302,1.6521,-50.0865,0,
113,1,1,1,4,0,46.5011,229.286,259.0886,0,0,0,3,0,0,0,259.0886,244.7123,1.1458,-14.3763,20,
113,1,1,1,5,1,167.7587,285.8897,225.4277,2,3,1,2,1,0,0,285.8897,314.0395,1.3749,28.1498,10,
113,1,1,1,6,0,139.4448,16.7913,257.1701,0,0,0,3,0,0,0,257.1701,259.7288,1.618,2.5587,40,
113,1,1,1,7,1,287.5328,228.5846,106.5061,3,1,2,3,1,0,0,106.5061,111.421,2.0902,4.9149,30,
113,1,1,1,8,1,285.7947,107.626,166.5987,1,3,2,1,1,0,0,285.7947,295.9131,2.7081,10.1184,30,
113,1,1,1,9,1,45.2874,135.0467,79.1546,3,1,2,3,1,0,0,79.1546,62.7095,1.4235,-16.445,20,
113,1,1,1,10,1,79.647,105.642,46.1049,2,1,3,3,0,0,1,46.1049,37.6896,1.1527,-8.4153,30,
113,1,1,1,11,1,136.1606,18.991,46.1892,2,3,1,2,1,0,0,18.991,39.9836,1.7988,20.9925,20,
113,1,1,1,12,1,79.8082,137.2081,288.4624,1,2,3,3,0,0,1,288.4624,280.6976,1.0346,-7.7648,30,
113,1,1,1,13,1,109.8696,78.5771,198.492,3,1,2,3,1,0,0,198.492,201.2105,1.375,2.7185,40,
113,1,1,1,14,1,257.1834,225.656,198.267,1,3,2,3,0,1,0,198.267,213.7846,1.4583,15.5176,20,
113,1,1,1,15,1,288.0548,167.4508,77.2238,2,1,3,1,0,1,0,288.0548,298.1906,1.8541,10.1358,30,
113,1,1,1,16,0,49.7556,255.3335,19.7307,0,0,0,2,0,0,0,255.3335,260.4215,1.2083,5.0879,30,
113,1,1,1,17,1,45.2934,319.0682,76.7284,3,2,1,1,0,0,1,45.2934,51.6304,1.5352,6.337,30,
113,1,1,1,18,0,286.8599,346.6542,105.0926,0,0,0,2,0,0,0,346.6542,340.8406,2.7984,-5.8137,30,
113,1,1,1,19,0,285.6755,229.6926,197.3393,0,0,0,1,0,0,0,285.6755,251.8055,1.354,-33.87,0,
113,1,1,1,20,1,139.9254,167.2356,75.3731,3,2,1,3,1,0,0,75.3731,60.7915,1.5833,-14.5817,20,
113,1,1,1,21,0,197.0647,19.8204,227.9956,0,0,0,2,0,0,0,19.8204,29.7949,1.1455,9.9744,30,
113,1,1,1,22,0,78.4508,138.1395,108.8821,0,0,0,2,0,0,0,138.1395,124.0357,1.2568,-14.1038,20,
113,1,1,1,23,0,45.2953,226.1567,319.6772,0,0,0,3,0,0,0,319.6772,330.8664,1.1389,11.1892,30,
113,1,1,1,24,1,225.5774,45.6965,137.0227,2,3,1,2,1,0,0,45.6965,59.7875,0.6319,14.091,20,
113,1,1,1,25,1,135.8829,345.8672,79.2824,3,2,1,1,0,0,1,135.8829,158.1749,1.5208,22.2921,10,
113,1,1,1,26,1,139.625,347.4725,106.1053,3,1,2,3,1,0,0,106.1053,95.9789,0.95131,-10.1264,30,
113,1,1,1,27,1,49.1854,227.8516,108.9154,2,3,1,2,1,0,0,227.8516,236.2487,2.4514,8.397,30,
113,1,1,1,28,1,136.265,229.3607,287.681,2,3,1,2,1,0,0,229.3607,240.0717,2.2776,10.711,30,
113,1,1,1,29,1,199.1968,317.8928,256.3782,3,2,1,3,1,0,0,256.3782,230.2772,1.3123,-26.1009,10,
113,1,1,1,30,1,169.6031,226.8127,315.3177,1,2,3,1,1,0,0,169.6031,168.8139,1.6111,-0.78918,40,
113,1,1,1,31,0,347.8238,165.2285,49.6889,0,0,0,1,0,0,0,347.8238,338.5132,1.6735,-9.3107,30,
113,1,1,1,32,0,135.9108,16.6392,345.1189,0,0,0,2,0,0,0,16.6392,24.938,1.0556,8.2988,30,
113,1,1,1,33,1,19.1732,169.0778,287.7741,1,2,3,1,1,0,0,19.1732,27.9438,2.3123,8.7706,30,
113,1,1,1,34,1,167.3649,288.591,225.64,3,2,1,1,0,0,1,167.3649,166.2608,0.96512,-1.1042,40,
113,1,1,1,35,0,135.7817,225.654,195.8518,0,0,0,3,0,0,0,195.8518,206.5099,1.2852,10.6582,30,
113,1,1,1,36,0,168.3601,139.042,18.3845,0,0,0,3,0,0,0,18.3845,31.5716,1.2916,13.187,20,
113,1,1,1,37,1,136.23,167.0824,226.8499,2,1,3,2,1,0,0,167.0824,146.2062,0.89578,-20.8762,20,
113,1,1,1,38,1,135.2984,49.8434,105.3275,3,1,2,3,1,0,0,105.3275,94.2736,0.95831,-11.0539,30,
113,1,1,1,39,1,138.8971,45.4316,75.8945,1,3,2,1,1,0,0,138.8971,155.5739,1.0693,16.6769,20,
113,1,1,1,40,0,105.0693,46.3358,169.6604,0,0,0,3,0,0,0,169.6604,156.8224,1.2915,-12.8379,20,
113,1,1,1,41,1,49.4302,315.5335,108.1016,2,1,3,2,1,0,0,315.5335,317.2663,1.0694,1.7328,40,
113,1,1,1,42,0,139.8005,288.062,226.7679,0,0,0,1,0,0,0,139.8005,146.2807,1.2985,6.4802,30,
113,1,1,1,43,0,167.6678,48.1755,289.787,0,0,0,2,0,0,0,48.1755,38.4376,0.86802,-9.738,30,
113,1,1,1,44,1,197.9081,229.34,345.6535,3,2,1,3,1,0,0,345.6535,345.9068,0.82676,0.25332,40,
113,1,1,1,45,0,198.3868,316.8924,47.1722,0,0,0,2,0,0,0,316.8924,316.6211,1.3751,-0.27128,40,
113,1,1,1,46,1,348.8737,46.761,135.9903,1,3,2,1,1,0,0,348.8737,340.4086,1.1041,-8.4651,30,
113,1,1,1,47,0,76.903,197.0924,45.3297,0,0,0,3,0,0,0,45.3297,53.2382,0.8473,7.9085,30,
113,1,1,1,48,0,136.5088,229.1604,288.8523,0,0,0,2,0,0,0,229.1604,225.5416,1.3402,-3.6188,30,
113,1,1,1,49,0,106.3387,229.2591,259.1417,0,0,0,2,0,0,0,229.2591,231.6,1.2639,2.3408,40,
113,1,1,1,50,0,225.4507,45.0226,165.9356,0,0,0,1,0,0,0,225.4507,225.1605,0.84723,-0.29024,40,
113,1,1,1,51,1,195.0187,348.9883,316.4683,1,2,3,2,0,1,0,348.9883,341.0572,1.0347,-7.9311,30,
113,1,1,1,52,0,256.5477,167.6544,347.6966,0,0,0,1,0,0,0,256.5477,244.1345,0.88881,-12.4132,20,
113,1,1,1,53,1,48.4942,167.3936,196.9609,3,2,1,2,0,1,0,167.3936,143.0156,1.3124,-24.378,10,
113,1,1,1,54,1,77.8891,166.4372,198.8866,1,3,2,1,1,0,0,77.8891,43.3754,1.0069,-34.5137,0,
113,1,1,1,55,0,198.7267,319.6301,78.7633,0,0,0,3,0,0,0,78.7633,61.483,1.5693,-17.2803,20,
113,1,1,1,56,0,105.7815,18.9205,318.0679,0,0,0,3,0,0,0,318.0679,327.2126,0.86106,9.1447,30,
113,1,1,1,57,1,195.9681,75.3757,135.4207,3,1,2,3,1,0,0,135.4207,140.3526,1.3403,4.932,30,
113,1,1,1,58,1,318.4292,136.9758,259.457,2,3,1,1,0,0,1,318.4292,312.4534,1.4027,-5.9758,30,
113,1,1,1,59,1,315.8649,286.3007,139.7834,3,2,1,3,1,0,0,139.7834,130.5565,1.2082,-9.2269,30,
113,1,1,1,60,1,136.7631,349.82,167.8037,2,3,1,2,1,0,0,349.82,353.9023,0.9374,4.0823,30,
113,1,2,1,61,1,167.6301,256.6044,226.4234,1,3,2,1,1,0,0,167.6301,149.3649,0.8194,-18.2652,20,
113,1,2,1,62,1,137.7579,257.587,17.0248,2,3,1,1,0,0,1,137.7579,154.4212,0.88885,16.6633,20,
113,1,2,1,63,0,285.1547,77.1619,137.0661,0,0,0,3,0,0,0,137.0661,140.9514,2.5902,3.8853,30,
113,1,2,1,64,1,197.0842,169.933,47.6953,1,3,2,1,1,0,0,197.0842,192.9949,0.98608,-4.0893,30,
113,1,2,1,65,1,47.3388,286.9021,228.4623,2,1,3,2,1,0,0,286.9021,322.2393,0.99313,35.3372,0,
113,1,2,1,66,1,45.9318,319.7526,199.9844,1,2,3,1,1,0,0,45.9318,29.6743,1.2292,-16.2575,20,
113,1,2,1,67,0,288.4085,317.6472,79.1872,0,0,0,1,0,0,0,288.4085,288.9615,1.5276,0.55303,40,
113,1,2,1,68,1,139.781,167.5432,196.0515,3,2,1,3,1,0,0,196.0515,213.0562,1.0138,17.0047,20,
113,1,2,1,69,0,168.3628,106.6193,138.1707,0,0,0,1,0,0,0,168.3628,171.9895,1.2222,3.6266,30,
113,1,2,1,70,1,228.9821,76.543,197.543,1,2,3,2,0,1,0,76.543,69.0093,1.2361,-7.5337,30,
113,1,2,1,71,1,228.8666,319.9715,256.5864,3,2,1,2,0,1,0,319.9715,330.9596,1.1667,10.9881,30,
113,1,2,1,72,0,315.7351,225.6485,78.3033,0,0,0,1,0,0,0,315.7351,298.7696,1.361,-16.9655,20,
113,1,2,1,73,0,16.0743,46.4231,348.4227,0,0,0,2,0,0,0,46.4231,37.4923,1.0555,-8.9308,30,
113,1,2,1,74,0,316.6161,165.7748,79.37,0,0,0,1,0,0,0,316.6161,308.3234,1.0277,-8.2926,30,
113,1,2,1,75,0,349.5712,315.4876,19.3216,0,0,0,1,0,0,0,349.5712,345.5004,1.2846,-4.0708,30,
113,1,2,1,76,1,289.1401,197.774,316.6019,3,2,1,2,0,1,0,197.774,220.5341,1.4929,22.7601,10,
113,1,2,1,77,1,318.2537,228.0656,288.7594,2,3,1,3,0,1,0,288.7594,259.1927,2.3887,-29.5667,10,
113,1,2,1,78,1,349.0518,288.638,19.0051,1,2,3,1,1,0,0,349.0518,349.2802,1.4651,0.22845,40,
113,1,2,1,79,1,197.5932,318.5043,258.9229,1,3,2,1,1,0,0,197.5932,205.4053,0.96543,7.8121,30,
113,1,2,1,80,0,166.6779,107.3901,136.1192,0,0,0,2,0,0,0,107.3901,92.0761,1.3124,-15.314,20,
113,1,2,1,81,0,168.0325,79.5655,107.8591,0,0,0,1,0,0,0,168.0325,164.3904,0.89579,-3.6421,30,
113,1,2,1,82,1,47.4385,286.522,315.7046,1,3,2,2,0,0,1,286.522,298.0141,1.1457,11.492,30,
113,1,2,1,83,1,227.7914,108.7736,345.4821,1,3,2,2,0,0,1,108.7736,94.6223,1.5554,-14.1513,20,
113,1,2,1,84,0,168.4169,315.1683,229.6498,0,0,0,1,0,0,0,168.4169,166.3476,1.2986,-2.0693,40,
113,1,2,1,85,0,49.5929,136.842,287.8145,0,0,0,2,0,0,0,136.842,129.2776,1.4791,-7.5644,30,
113,1,2,1,86,0,198.5571,165.3131,135.3082,0,0,0,1,0,0,0,198.5571,198.2896,1.2569,-0.26752,40,
113,1,2,1,87,0,75.3939,198.178,228.081,0,0,0,3,0,0,0,228.081,224.6573,1.4171,-3.4237,30,
113,1,2,1,88,1,257.4894,106.851,138.3061,1,3,2,1,1,0,0,257.4894,212.2117,1.5137,-45.2777,0,
113,1,2,1,89,0,169.1381,257.1404,77.5215,0,0,0,3,0,0,0,77.5215,60.3722,1.0763,-17.1493,20,
113,1,2,1,90,0,346.4828,135.2291,258.9999,0,0,0,1,0,0,0,346.4828,337.7517,1.0139,-8.7311,30,
113,1,2,1,91,0,169.8799,317.5524,76.9673,0,0,0,2,0,0,0,317.5524,329.2548,1.1944,11.7024,30,
113,1,2,1,92,0,225.729,345.8152,167.6929,0,0,0,1,0,0,0,225.729,229.4253,0.72213,3.6963,30,
113,1,2,1,93,0,285.6479,108.0648,139.8173,0,0,0,2,0,0,0,108.0648,104.0309,1.1319,-4.034,30,
113,1,2,1,94,0,255.4049,19.5107,346.2637,0,0,0,1,0,0,0,255.4049,231.2137,0.91663,-24.1912,10,
113,1,2,1,95,1,166.5714,349.9771,315.9457,2,3,1,1,0,0,1,166.5714,156.2584,1.2916,-10.313,30,
113,1,2,1,96,1,227.3712,258.984,165.1243,2,1,3,2,1,0,0,258.984,272.855,1.0208,13.8711,20,
113,1,2,1,97,1,286.0524,107.1747,199.6655,1,2,3,1,1,0,0,286.0524,285.3292,0.95079,-0.72325,40,
113,1,2,1,98,1,315.5124,45.1071,347.5846,3,1,2,3,1,0,0,347.5846,0.27693,0.88894,12.6923,20,
113,1,2,1,99,1,48.4294,349.0523,15.754,1,3,2,2,0,0,1,349.0523,345.4579,0.99995,-3.5945,30,
113,1,2,1,100,1,347.0692,136.3647,318.4482,3,2,1,3,1,0,0,318.4482,321.1913,0.81942,2.743,40,
113,1,2,1,101,0,289.4533,259.4763,48.9716,0,0,0,2,0,0,0,259.4763,282.7929,1.1597,23.3166,10,
113,1,2,1,102,1,135.2139,349.3533,79.4392,2,1,3,2,1,0,0,349.3533,339.7456,0.97221,-9.6076,30,
113,1,2,1,103,1,195.5347,47.2655,105.9686,2,1,3,3,0,0,1,105.9686,107.4032,1.6387,1.4346,40,
113,1,2,1,104,0,167.5928,47.1268,109.0606,0,0,0,1,0,0,0,167.5928,162.8528,0.80555,-4.74,30,
113,1,2,1,105,0,49.8763,256.4109,319.8779,0,0,0,2,0,0,0,256.4109,270.1042,1.167,13.6933,20,
113,1,2,1,106,1,109.997,319.404,45.1946,1,2,3,1,1,0,0,109.997,132.1591,0.7291,22.1621,10,
113,1,2,1,107,0,288.5304,319.2904,76.3491,0,0,0,3,0,0,0,76.3491,59.6509,1.1665,-16.6982,20,
113,1,2,1,108,0,259.2226,16.9048,75.448,0,0,0,3,0,0,0,75.448,72.8824,1.5553,-2.5656,40,
113,1,2,1,109,1,287.3023,107.8037,348.281,3,2,1,3,1,0,0,348.281,344.562,0.98611,-3.719,30,
113,1,2,1,110,1,107.3051,76.5081,287.7735,2,1,3,3,0,0,1,287.7735,282.7175,0.95827,-5.056,30,
113,1,2,1,111,1,287.4029,45.335,195.4102,3,2,1,3,1,0,0,195.4102,183.1441,1.1944,-12.2661,20,
113,1,2,1,112,0,319.2486,49.3263,15.3706,0,0,0,1,0,0,0,319.2486,319.2005,1.5971,-0.048076,40,
113,1,2,1,113,1,47.8205,76.1069,167.9354,2,3,1,2,1,0,0,76.1069,75.2965,0.9723,-0.81042,40,
113,1,2,1,114,1,348.0664,286.3547,317.3484,2,1,3,2,1,0,0,286.3547,320.4256,1.4235,34.0709,0,
113,1,2,1,115,1,77.1119,17.5712,286.6792,1,2,3,1,1,0,0,77.1119,70.1298,1.3471,-6.982,30,
113,1,2,1,116,0,15.0253,285.8329,109.373,0,0,0,3,0,0,0,109.373,114.1266,1.2291,4.7536,30,
113,1,2,1,117,1,49.0875,78.6786,165.791,2,3,1,3,0,1,0,165.791,161.3367,1.6943,-4.4543,30,
113,1,2,1,118,0,45.8186,137.9201,229.5456,0,0,0,1,0,0,0,45.8186,45.9699,1.2638,0.1513,40,
113,1,2,1,119,1,255.7269,226.5693,165.0033,1,2,3,1,1,0,0,255.7269,236.9831,1.0764,-18.7439,20,
113,1,2,1,120,1,165.0577,256.1944,317.3095,1,2,3,1,1,0,0,165.0577,164.4685,1.0556,-0.58919,40,
113,1,3,2,121,0,45.3671,17.764,257.0834,0,0,0,3,0,0,0,257.0834,257.7848,0.9642,0.70135,40,
113,1,3,2,122,0,16.4573,139.8181,285.0819,0,0,0,2,0,0,0,139.8181,140.864,1.2921,1.0458,40,
113,1,3,2,123,1,17.9325,109.415,228.9559,1,3,2,1,1,0,0,17.9325,19.7729,1.8958,1.8404,40,
113,1,3,2,124,1,288.6023,319.5767,168.6395,1,2,3,1,1,0,0,288.6023,310.809,1.2082,22.2066,10,
113,1,3,2,125,1,347.3289,138.8727,108.5212,3,2,1,3,1,0,0,108.5212,111.0269,1.1597,2.5057,40,
113,1,3,2,126,0,105.0866,288.6947,75.2735,0,0,0,2,0,0,0,288.6947,307.0511,1.1666,18.3564,20,
113,1,3,2,127,0,105.8021,286.8138,136.3881,0,0,0,2,0,0,0,286.8138,296.2355,1.3957,9.4217,30,
113,1,3,2,128,1,105.4642,76.663,288.4675,3,1,2,3,1,0,0,288.4675,286.3476,0.78465,-2.1198,40,
113,1,3,2,129,1,317.8528,16.6178,169.7863,3,1,2,3,1,0,0,169.7863,179.1005,1.0763,9.3142,30,
113,1,3,2,130,0,46.4508,108.429,226.544,0,0,0,2,0,0,0,108.429,112.7142,1.0486,4.2852,30,
113,1,3,2,131,1,195.1918,106.3284,46.511,1,3,2,2,0,0,1,106.3284,119.9807,0.7849,13.6523,20,
113,1,3,2,132,1,348.7205,136.6838,169.0068,2,3,1,2,1,0,0,136.6838,125.4274,1.0001,-11.2564,30,
113,1,3,2,133,0,347.2198,78.5229,199.909,0,0,0,3,0,0,0,199.909,187.6525,1.243,-12.2565,20,
113,1,3,2,134,1,48.0302,79.2868,15.7845,3,1,2,3,1,0,0,15.7845,14.6014,0.75693,-1.1831,40,
113,1,3,2,135,1,316.9259,229.2826,109.6127,2,1,3,2,1,0,0,229.2826,228.193,1.6597,-1.0896,40,
113,1,3,2,136,0,195.0036,317.7327,17.8215,0,0,0,1,0,0,0,195.0036,194.9485,0.66666,-0.055079,40,
113,1,3,2,137,1,19.5432,345.5759,318.7218,2,3,1,2,1,0,0,345.5759,353.5832,1.0554,8.0073,30,
113,1,3,2,138,1,319.6414,49.4647,107.9935,2,1,3,2,1,0,0,49.4647,34.2297,0.84033,-15.2349,20,
113,1,3,2,139,1,229.6514,108.0118,258.6449,1,3,2,1,1,0,0,229.6514,224.6969,0.81933,-4.9545,30,
113,1,3,2,140,1,76.912,166.0858,259.2257,3,2,1,3,1,0,0,259.2257,258.0259,0.95142,-1.1999,40,
113,1,3,2,141,1,135.0349,15.8694,78.8387,2,1,3,1,0,1,0,135.0349,NaN,100000,999,0,
113,1,3,2,142,1,15.2111,75.7878,196.8068,1,3,2,3,0,1,0,196.8068,NaN,100000,999,0,
113,1,3,2,143,1,18.0791,108.991,169.1012,2,1,3,2,1,0,0,108.991,113.3818,0.85417,4.3908,30,
113,1,3,2,144,1,346.1677,76.0985,286.2963,1,3,2,1,1,0,0,346.1677,345.2258,2.1874,-0.94186,40,
113,1,3,2,145,1,199.1113,289.3245,166.6937,1,3,2,2,0,0,1,289.3245,310.2129,0.85411,20.8885,20,
113,1,3,2,146,1,16.6498,75.4703,229.1588,3,2,1,3,1,0,0,229.1588,240.2974,0.77778,11.1386,30,
113,1,3,2,147,1,168.2834,257.6777,45.7402,2,1,3,3,0,0,1,45.7402,42.0476,0.78474,-3.6926,30,
113,1,3,2,148,1,168.7562,316.9016,46.3313,3,1,2,2,0,0,1,316.9016,323.9259,1.1318,7.0243,30,
113,1,3,2,149,1,286.8301,259.2503,319.7088,2,1,3,2,1,0,0,259.2503,283.779,1.0557,24.5287,10,
113,1,3,2,150,0,169.813,135.4378,16.2783,0,0,0,3,0,0,0,16.2783,13.9563,1.0485,-2.322,40,
113,1,3,2,151,0,108.8506,229.1065,285.5739,0,0,0,1,0,0,0,108.8506,127.2267,0.93052,18.3761,20,
113,1,3,2,152,1,75.7997,227.1086,287.7935,2,1,3,2,1,0,0,227.1086,236.8157,1.1735,9.7072,30,
113,1,3,2,153,0,108.4989,226.1455,288.9949,0,0,0,2,0,0,0,226.1455,237.6068,1.5208,11.4613,30,
113,1,3,2,154,0,229.6674,316.0235,345.2026,0,0,0,3,0,0,0,345.2026,334.0859,0.84718,-11.1167,30,
113,1,3,2,155,1,48.8292,318.5057,196.9738,2,1,3,2,1,0,0,318.5057,329.3637,1.4166,10.8579,30,
113,1,3,2,156,0,316.1095,106.1098,287.2353,0,0,0,1,0,0,0,316.1095,315.4357,1.3194,-0.67384,40,
113,1,3,2,157,1,256.1583,226.0451,318.0494,1,3,2,3,0,1,0,318.0494,NaN,100000,999,0,
113,1,3,2,158,1,195.7293,168.5903,16.4374,1,2,3,3,0,0,1,16.4374,18.6874,1.1666,2.25,40,
113,1,3,2,159,1,168.193,287.4894,229.6082,3,2,1,3,1,0,0,229.6082,209.2287,1.1042,-20.3795,20,
113,1,3,2,160,1,47.1054,79.7742,255.9474,2,1,3,2,1,0,0,79.7742,83.7322,0.90273,3.9579,30,
113,1,3,2,161,0,48.0219,169.9816,255.639,0,0,0,3,0,0,0,255.639,256.0641,0.93054,0.4251,40,
113,1,3,2,162,0,166.8107,77.7085,105.9141,0,0,0,1,0,0,0,166.8107,165.3632,0.90971,-1.4475,40,
113,1,3,2,163,1,228.2537,199.3408,316.7389,2,3,1,2,1,0,0,199.3408,204.5957,2.597,5.2549,30,
113,1,3,2,164,1,79.6755,229.2107,168.899,3,1,2,2,0,0,1,229.2107,251.117,1.5624,21.9062,10,
113,1,3,2,165,1,347.1626,197.4493,315.0263,2,3,1,2,1,0,0,197.4493,224.5159,1.1805,27.0666,10,
113,1,3,2,166,1,76.0121,348.7798,19.7216,3,1,2,3,1,0,0,19.7216,18.5769,0.97273,-1.1447,40,
113,1,3,2,167,0,289.4188,199.8567,48.159,0,0,0,3,0,0,0,48.159,34.8544,1.687,-13.3046,20,
113,1,3,2,168,1,75.6025,109.1368,18.7314,1,3,2,2,0,0,1,109.1368,98.2613,1.111,-10.8755,30,
113,1,3,2,169,0,287.5456,167.9106,135.2279,0,0,0,3,0,0,0,135.2279,125.4688,1.8819,-9.7591,30,
113,1,3,2,170,0,286.6719,319.2714,75.0754,0,0,0,2,0,0,0,319.2714,338.3046,1.0486,19.0332,20,
113,1,3,2,171,1,77.9545,285.0169,137.4278,2,1,3,2,1,0,0,285.0169,298.735,0.77078,13.718,20,
113,1,3,2,172,0,135.095,345.4361,167.0706,0,0,0,2,0,0,0,345.4361,343.7786,1.2987,-1.6575,40,
113,1,3,2,173,1,166.4906,257.6754,225.8735,3,2,1,3,1,0,0,225.8735,215.7323,1.4444,-10.1412,30,
113,1,3,2,174,1,256.8338,198.2257,48.0853,2,1,3,2,1,0,0,198.2257,168.4704,1.3124,-29.7553,10,
113,1,3,2,175,1,289.4399,49.5661,318.1183,1,2,3,2,0,1,0,49.5661,NaN,100000,999,0,
113,1,3,2,176,0,227.2282,346.9787,169.8509,0,0,0,1,0,0,0,227.2282,211.1958,0.99989,-16.0325,20,
113,1,3,2,177,1,77.8421,228.6618,317.0498,2,3,1,2,1,0,0,228.6618,242.0308,1.5623,13.3691,20,
113,1,3,2,178,1,285.3884,256.3126,136.8142,2,3,1,2,1,0,0,256.3126,235.8657,2.4165,-20.4469,20,
113,1,3,2,179,0,79.469,45.2906,346.6152,0,0,0,3,0,0,0,346.6152,348.2013,1.5833,1.5861,40,
113,1,3,2,180,1,48.3381,288.757,199.864,2,3,1,2,1,0,0,288.757,283.08,1.7082,-5.677,30,
113,1,4,2,181,1,319.1507,49.1096,286.6385,3,1,2,1,0,1,0,319.1507,NaN,100000,999,0,
113,1,4,2,182,1,286.759,196.8689,348.5008,1,2,3,1,1,0,0,286.759,297.3738,1.6529,10.6148,30,
113,1,4,2,183,0,107.5925,78.6014,139.557,0,0,0,2,0,0,0,78.6014,86.8616,0.78475,8.2602,30,
113,1,4,2,184,1,137.0836,195.1206,76.0009,1,2,3,1,1,0,0,137.0836,158.1765,0.93744,21.0929,10,
113,1,4,2,185,1,256.5881,78.4429,319.3828,3,2,1,3,1,0,0,319.3828,318.2894,0.94442,-1.0933,40,
113,1,4,2,186,1,19.8328,257.5742,289.7055,1,2,3,3,0,0,1,289.7055,292.3428,0.84016,2.6372,40,
113,1,4,2,187,1,319.9218,76.4011,136.1375,3,2,1,2,0,1,0,76.4011,NaN,100000,999,0,
113,1,4,2,188,1,139.8512,228.1325,19.258,1,3,2,1,1,0,0,139.8512,152.4067,0.90274,12.5555,20,
113,1,4,2,189,0,138.0547,289.0306,255.1701,0,0,0,3,0,0,0,255.1701,250.6724,1.1528,-4.4977,30,
113,1,4,2,190,0,318.4735,135.2007,108.6708,0,0,0,3,0,0,0,108.6708,108.7477,1.4582,0.076824,40,
113,1,4,2,191,1,285.3241,258.5009,46.5781,1,2,3,1,1,0,0,285.3241,299.0571,1.2986,13.733,20,
113,1,4,2,192,0,76.3422,47.204,315.4813,0,0,0,2,0,0,0,47.204,43.6122,0.70802,-3.5918,30,
113,1,4,2,193,1,346.8496,19.2383,226.3741,2,3,1,2,1,0,0,19.2383,30.9252,0.68052,11.687,30,
113,1,4,2,194,0,319.4716,75.7797,286.5528,0,0,0,1,0,0,0,319.4716,315.3081,2.0485,-4.1635,30,
113,1,4,2,195,1,289.7864,195.3463,136.0869,2,3,1,2,1,0,0,195.3463,195.5185,1.6527,0.17223,40,
113,1,4,2,196,1,229.6725,109.8643,315.4473,2,1,3,1,0,1,0,229.6725,NaN,100000,999,0,
113,1,4,2,197,1,135.4925,258.9661,227.8066,3,1,2,2,0,0,1,258.9661,247.0956,1.5346,-11.8705,30,
113,1,4,2,198,0,17.2003,78.8124,195.0438,0,0,0,3,0,0,0,195.0438,193.5569,1.5971,-1.4869,40,
113,1,4,2,199,0,346.0231,47.6184,226.1865,0,0,0,1,0,0,0,346.0231,335.4478,3.0554,-10.5753,30,
113,1,4,2,200,0,196.483,77.1038,346.9809,0,0,0,3,0,0,0,346.9809,345.3477,1.2013,-1.6332,40,
113,1,4,2,201,1,346.3624,15.2497,315.8265,2,3,1,3,0,1,0,315.8265,NaN,100000,999,0,
113,1,4,2,202,0,319.4416,49.9606,256.9191,0,0,0,1,0,0,0,319.4416,322.3821,1.4305,2.9405,40,
113,1,4,2,203,1,228.6893,259.3661,316.6298,3,1,2,2,0,0,1,259.3661,264.6651,1.7846,5.299,30,
113,1,4,2,204,1,167.9542,256.3643,77.3228,2,3,1,2,1,0,0,256.3643,253.6506,1.9305,-2.7137,40,
113,1,4,2,205,1,229.2203,169.5079,318.8984,1,2,3,1,1,0,0,229.2203,225.8468,1.0832,-3.3735,30,
113,1,4,2,206,0,106.0757,197.289,287.5851,0,0,0,1,0,0,0,106.0757,132.2653,1.0486,26.1896,10,
113,1,4,2,207,0,107.2912,166.3153,255.921,0,0,0,1,0,0,0,107.2912,124.275,1.3888,16.9838,20,
113,1,4,2,208,1,319.5876,289.7294,46.7167,2,3,1,2,1,0,0,289.7294,317.7529,0.96516,28.0236,10,
113,1,4,2,209,0,106.5336,227.3643,318.2923,0,0,0,3,0,0,0,318.2923,333.086,1.0833,14.7937,20,
113,1,4,2,210,0,76.9959,256.2549,109.9814,0,0,0,1,0,0,0,76.9959,47.7082,1.8471,-29.2877,10,
113,1,4,2,211,1,197.7999,227.8285,137.9923,1,3,2,2,0,0,1,227.8285,233.192,1.0625,5.3635,30,
113,1,4,2,212,0,199.1692,255.3979,227.0045,0,0,0,3,0,0,0,227.0045,204.4467,1.9929,-22.5579,10,
113,1,4,2,213,1,228.6097,315.139,346.3304,3,2,1,3,1,0,0,346.3304,348.4282,2.1388,2.0979,40,
113,1,4,2,214,1,48.6644,199.7895,225.6489,2,3,1,2,1,0,0,199.7895,206.7661,1.4791,6.9766,30,
113,1,4,2,215,1,196.5867,229.1823,169.0975,1,3,2,1,1,0,0,196.5867,195.7196,1.0486,-0.86706,40,
113,1,4,2,216,0,77.4603,166.4598,318.313,0,0,0,1,0,0,0,77.4603,50.4501,1.3889,-27.0102,10,
113,1,4,2,217,0,18.9262,348.3209,108.6558,0,0,0,2,0,0,0,348.3209,357.5109,2.4096,9.19,30,
113,1,4,2,218,0,259.9226,318.5131,18.7247,0,0,0,1,0,0,0,259.9226,240.106,1.2291,-19.8165,20,
113,1,4,2,219,1,229.3481,77.0349,255.4741,1,2,3,1,1,0,0,229.3481,231.9362,1.0971,2.5881,40,
113,1,4,2,220,1,19.736,317.1793,226.306,3,1,2,3,1,0,0,226.306,210.8763,1.1597,-15.4297,20,
113,1,4,2,221,0,199.1682,228.0939,45.8544,0,0,0,1,0,0,0,199.1682,222.043,0.82626,22.8748,10,
113,1,4,2,222,0,76.9181,16.5354,107.062,0,0,0,2,0,0,0,16.5354,30.0592,0.83338,13.5238,20,
113,1,4,2,223,0,49.0839,198.551,348.483,0,0,0,1,0,0,0,49.0839,34.2644,1.2921,-14.8194,20,
113,1,4,2,224,0,109.0532,49.498,289.4304,0,0,0,1,0,0,0,109.0532,121.1608,0.94388,12.1076,20,
113,1,4,2,225,0,15.3977,108.3505,287.6242,0,0,0,3,0,0,0,287.6242,279.0832,1.1111,-8.5411,30,
113,1,4,2,226,1,76.2829,316.1748,346.7998,1,3,2,3,0,1,0,346.7998,NaN,100000,999,0,
113,1,4,2,227,1,347.8015,136.9414,196.5129,2,3,1,2,1,0,0,136.9414,149.6213,1.6249,12.6799,20,
113,1,4,2,228,1,287.5805,198.4848,257.2128,2,1,3,2,1,0,0,198.4848,174.0158,1.7568,-24.469,10,
113,1,4,2,229,0,76.7487,169.6823,18.6224,0,0,0,3,0,0,0,18.6224,11.3991,1.2708,-7.2233,30,
113,1,4,2,230,1,169.99,197.089,228.8288,1,3,2,1,1,0,0,169.99,171.8887,0.84024,1.8987,40,
113,1,4,2,231,1,76.0219,167.5687,197.3586,2,1,3,3,0,0,1,197.3586,198.7878,1.3472,1.4291,40,
113,1,4,2,232,1,107.9681,315.8429,348.3127,1,2,3,1,1,0,0,107.9681,140.8738,1.0902,32.9057,0,
113,1,4,2,233,1,345.8325,48.971,285.3122,3,2,1,2,0,1,0,48.971,NaN,100000,999,0,
113,1,4,2,234,1,286.8011,77.2218,317.1573,2,1,3,3,0,0,1,317.1573,319.8268,1.1667,2.6695,40,
113,1,4,2,235,0,18.2231,169.175,255.2369,0,0,0,1,0,0,0,18.2231,13.9045,1.2637,-4.3186,30,
113,1,4,2,236,0,109.1052,139.1284,346.2755,0,0,0,1,0,0,0,109.1052,133.2187,1.0624,24.1134,10,
113,1,4,2,237,0,319.9823,228.0589,345.0925,0,0,0,3,0,0,0,345.0925,343.1082,0.62502,-1.9843,40,
113,1,4,2,238,1,48.3632,226.9539,105.1998,3,2,1,3,1,0,0,105.1998,116.7213,0.93746,11.5216,30,
113,1,4,2,239,1,259.684,109.4295,19.1805,3,2,1,2,0,1,0,109.4295,NaN,100000,999,0,
113,1,4,2,240,0,318.0886,255.7351,105.5371,0,0,0,1,0,0,0,318.0886,318.9607,1.0625,0.87209,40,
113,1,5,2,241,1,135.6957,108.9836,285.6645,1,2,3,3,0,0,1,285.6645,278.2532,1.0347,-7.4114,30,
113,1,5,2,242,1,289.6205,137.0813,16.6098,3,2,1,3,1,0,0,16.6098,41.5653,0.81969,24.9554,10,
113,1,5,2,243,1,105.6849,17.165,349.2011,1,2,3,1,1,0,0,105.6849,124.0383,0.92326,18.3534,20,
113,1,5,2,244,1,287.1638,105.1022,225.7924,3,1,2,1,0,1,0,287.1638,NaN,100000,999,0,
113,1,5,2,245,0,227.3488,287.3207,78.052,0,0,0,2,0,0,0,287.3207,292.6932,1.1665,5.3725,30,
113,1,5,2,246,1,288.4321,228.223,105.5927,3,1,2,3,1,0,0,105.5927,108.405,1.7012,2.8123,40,
113,1,5,2,247,1,167.1625,196.0863,78.5938,3,2,1,3,1,0,0,78.5938,71.3907,1.3819,-7.2031,30,
113,1,5,2,248,0,168.065,348.5242,139.2691,0,0,0,1,0,0,0,168.065,168.9295,0.95134,0.86454,40,
113,1,5,2,249,1,166.3544,106.2473,199.6774,3,1,2,3,1,0,0,199.6774,193.9677,1.6318,-5.7096,30,
113,1,5,2,250,0,19.7248,199.2446,45.5075,0,0,0,2,0,0,0,199.2446,214.1747,2.361,14.9301,20,
113,1,5,2,251,1,108.1943,46.5797,165.3894,1,2,3,1,1,0,0,108.1943,118.2681,1.1597,10.0738,30,
113,1,5,2,252,0,18.7609,197.4369,107.1016,0,0,0,3,0,0,0,107.1016,109.2503,1.6319,2.1487,40,
113,1,5,2,253,1,228.1132,318.3164,348.2657,1,2,3,3,0,0,1,348.2657,344.3492,1.1388,-3.9166,30,
113,1,5,2,254,0,76.4339,347.459,197.7996,0,0,0,2,0,0,0,347.459,344.3753,1.3749,-3.0837,30,
113,1,5,2,255,0,107.0625,165.9279,75.1195,0,0,0,1,0,0,0,107.0625,146.0597,0.79863,38.9972,0,
113,1,5,2,256,0,258.1489,289.1489,346.2885,0,0,0,3,0,0,0,346.2885,345.9219,0.91661,-0.36661,40,
113,1,5,2,257,1,316.9612,139.4658,348.3172,2,3,1,1,0,0,1,316.9612,320.9441,1.3056,3.983,30,
113,1,5,2,258,1,228.6563,79.5999,137.4769,2,1,3,2,1,0,0,79.5999,72.5162,1.0208,-7.0837,30,
113,1,5,2,259,1,79.0563,318.7934,17.1159,1,2,3,1,1,0,0,79.0563,63.8127,1.1527,-15.2436,20,
113,1,5,2,260,0,106.2942,137.8854,167.3378,0,0,0,3,0,0,0,167.3378,178.764,1.3119,11.4262,30,
113,1,5,2,261,1,288.4504,47.585,345.9817,1,2,3,1,1,0,0,288.4504,260.0831,1.0208,-28.3673,10,
113,1,5,2,262,1,228.8305,49.5527,167.3951,2,3,1,3,0,1,0,167.3951,NaN,100000,999,0,
113,1,5,2,263,1,195.887,46.9796,287.4608,2,3,1,2,1,0,0,46.9796,41.841,1.1319,-5.1386,30,
113,1,5,2,264,0,259.2475,78.2639,347.5938,0,0,0,1,0,0,0,259.2475,252.1653,1.007,-7.0822,30,
113,1,5,2,265,1,109.2478,46.192,195.5791,3,2,1,2,0,1,0,46.192,NaN,100000,999,0,
113,1,5,2,266,1,108.0933,49.9801,345.0676,1,3,2,1,1,0,0,108.0933,104.3696,1.1111,-3.7237,30,
113,1,5,2,267,1,285.1394,109.4368,229.5828,3,1,2,3,1,0,0,229.5828,243.3718,0.93741,13.789,20,
113,1,5,2,268,0,166.8407,345.8715,48.8406,0,0,0,3,0,0,0,48.8406,42.2494,1.361,-6.5912,30,
113,1,5,2,269,1,349.8504,167.6536,46.7037,2,3,1,2,1,0,0,167.6536,155.8085,0.95078,-11.845,30,
113,1,5,2,270,1,165.1437,316.794,199.3211,1,2,3,1,1,0,0,165.1437,158.0292,1.2013,-7.1146,30,
113,1,5,2,271,0,106.2118,345.9783,138.4999,0,0,0,2,0,0,0,345.9783,343.492,1.6179,-2.4863,40,
113,1,5,2,272,0,288.4404,49.9428,135.3017,0,0,0,3,0,0,0,135.3017,145.5977,1.2638,10.2961,30,
113,1,5,2,273,1,347.8252,107.7252,79.8696,1,3,2,1,1,0,0,347.8252,327.906,1.0625,-19.9192,20,
113,1,5,2,274,0,287.0698,139.6229,17.282,0,0,0,3,0,0,0,17.282,36.6694,1.4166,19.3874,20,
113,1,5,2,275,1,345.8267,49.9573,285.3367,2,3,1,2,1,0,0,49.9573,38.2727,0.70136,-11.6846,30,
113,1,5,2,276,1,346.9718,109.405,316.4648,3,2,1,2,0,1,0,109.405,NaN,100000,999,0,
113,1,5,2,277,1,319.7698,285.3432,136.7088,1,2,3,1,1,0,0,319.7698,332.8004,1.3263,13.0306,20,
113,1,5,2,278,0,16.5731,165.8092,255.2115,0,0,0,2,0,0,0,165.8092,162.2937,1.4166,-3.5155,30,
113,1,5,2,279,1,166.3119,135.2038,288.2441,2,3,1,1,0,0,1,166.3119,171.4339,1.2152,5.1219,30,
113,1,5,2,280,1,78.2531,198.1727,136.4908,3,2,1,3,1,0,0,136.4908,163.8533,1.4512,27.3625,10,
113,1,5,2,281,1,318.8216,346.4861,167.4867,2,1,3,2,1,0,0,346.4861,350.3936,0.99296,3.9075,30,
113,1,5,2,282,1,346.244,108.5655,138.6674,3,2,1,1,0,0,1,346.244,349.5599,1.7429,3.316,30,
113,1,5,2,283,1,75.4637,285.1052,227.6462,3,2,1,3,1,0,0,227.6462,218.4824,1.3749,-9.1638,30,
113,1,5,2,284,1,198.0859,19.0835,138.0043,1,3,2,2,0,0,1,19.0835,27.3036,1.0833,8.2201,30,
113,1,5,2,285,1,15.477,49.9249,257.1158,2,1,3,2,1,0,0,49.9249,47.4049,0.90956,-2.52,40,
113,1,5,2,286,1,255.1046,287.9587,165.198,3,1,2,3,1,0,0,165.198,171.9493,1.4378,6.7513,30,
113,1,5,2,287,0,79.3242,349.8035,19.5499,0,0,0,2,0,0,0,349.8035,349.9665,1.6179,0.163,40,
113,1,5,2,288,0,196.9551,285.5794,46.5419,0,0,0,1,0,0,0,196.9551,195.3794,0.67351,-1.5757,40,
113,1,5,2,289,0,17.8394,139.1235,229.8291,0,0,0,2,0,0,0,139.1235,125.6004,1.1666,-13.5231,20,
113,1,5,2,290,1,105.1774,16.1086,49.0408,2,1,3,1,0,1,0,105.1774,NaN,100000,999,0,
113,1,5,2,291,0,135.911,347.063,255.8389,0,0,0,3,0,0,0,255.8389,256.237,1.2639,0.39813,40,
113,1,5,2,292,0,347.4942,105.9765,319.8191,0,0,0,2,0,0,0,105.9765,95.9389,1.4375,-10.0377,30,
113,1,5,2,293,1,227.5388,76.9713,316.9141,1,2,3,2,0,1,0,76.9713,NaN,100000,999,0,
113,1,5,2,294,0,227.1475,258.4805,196.0925,0,0,0,3,0,0,0,196.0925,195.1211,1.5138,-0.97145,40,
113,1,5,2,295,1,287.6638,17.7888,198.4672,1,2,3,3,0,0,1,198.4672,186.3003,1.6662,-12.1669,20,
113,1,5,2,296,0,347.5182,45.635,286.5259,0,0,0,2,0,0,0,45.635,39.0224,0.99999,-6.6125,30,
113,1,5,2,297,1,47.4659,349.1507,229.5924,2,1,3,2,1,0,0,349.1507,340.257,1.604,-8.8937,30,
113,1,5,2,298,1,108.3954,138.5708,195.688,2,3,1,2,1,0,0,138.5708,139.5061,1.8471,0.93526,40,
113,1,5,2,299,1,16.6666,197.275,45.042,3,1,2,1,0,1,0,16.6666,NaN,100000,999,0,
113,1,5,2,300,1,168.6076,228.1828,49.729,3,2,1,3,1,0,0,49.729,50.3335,1.6665,0.60454,40,
113,1,6,2,301,1,349.276,289.6534,318.8978,1,2,3,2,0,1,0,289.6534,NaN,100000,999,0,
113,1,6,2,302,1,169.7503,18.0276,79.0528,2,1,3,2,1,0,0,18.0276,26.67,1.132,8.6425,30,
113,1,6,2,303,0,348.8026,255.6956,48.0353,0,0,0,2,0,0,0,255.6956,258.8944,2.5135,3.1988,30,
113,1,6,2,304,1,79.2567,136.2341,317.157,3,2,1,3,1,0,0,317.157,327.8383,0.64581,10.6813,30,
113,1,6,2,305,1,138.6301,77.9276,289.761,3,1,2,1,0,1,0,138.6301,NaN,100000,999,0,
113,1,6,2,306,0,167.9562,257.4806,347.4647,0,0,0,2,0,0,0,257.4806,249.3818,1.6874,-8.0988,30,
113,1,6,2,307,1,76.1141,315.1313,285.9054,3,1,2,3,1,0,0,285.9054,285.4061,0.65974,-0.49927,40,
113,1,6,2,308,1,315.4429,108.7977,345.3481,1,3,2,2,0,0,1,108.7977,84.7914,1.1527,-24.0063,10,
113,1,6,2,309,0,319.3995,196.8921,289.1325,0,0,0,3,0,0,0,289.1325,278.0163,0.87495,-11.1162,30,
113,1,6,2,310,0,258.4335,226.7967,286.5474,0,0,0,2,0,0,0,226.7967,231.0781,2.861,4.2814,30,
113,1,6,2,311,0,17.3162,77.2873,167.9481,0,0,0,2,0,0,0,77.2873,72.7423,2.1109,-4.545,30,
113,1,6,2,312,0,195.4627,287.4819,106.1432,0,0,0,1,0,0,0,195.4627,191.0705,0.81917,-4.3922,30,
113,1,6,2,313,1,76.5699,17.8829,345.6083,1,2,3,1,1,0,0,76.5699,79.2794,1.3542,2.7095,40,
113,1,6,2,314,1,138.0818,79.8007,45.1939,2,1,3,2,1,0,0,79.8007,78.6557,0.95132,-1.1451,40,
113,1,6,2,315,0,48.7453,288.6061,17.6153,0,0,0,1,0,0,0,48.7453,51.7644,1.2429,3.0192,30,
113,1,6,2,316,1,76.7276,135.3013,47.2202,3,1,2,1,0,1,0,76.7276,NaN,100000,999,0,
113,1,6,2,317,0,135.7664,18.2568,105.8025,0,0,0,2,0,0,0,18.2568,26.664,1.118,8.4072,30,
113,1,6,2,318,0,46.8303,76.5296,108.0191,0,0,0,2,0,0,0,76.5296,72.2842,0.95842,-4.2454,30,
113,1,6,2,319,0,289.7642,46.6762,258.468,0,0,0,1,0,0,0,289.7642,267.1217,1.4443,-22.6425,10,
113,1,6,2,320,1,347.7297,168.1533,256.9656,1,3,2,1,1,0,0,347.7297,352.0264,1.1665,4.2967,30,
113,1,6,2,321,1,197.2314,258.9811,49.0688,2,3,1,3,0,1,0,49.0688,NaN,100000,999,0,
113,1,6,2,322,0,166.4604,195.4281,108.228,0,0,0,1,0,0,0,166.4604,166.0839,1.479,-0.37654,40,
113,1,6,2,323,0,228.4831,319.3725,47.8385,0,0,0,3,0,0,0,47.8385,37.3658,0.95829,-10.4727,30,
113,1,6,2,324,1,348.7871,45.0393,106.3275,3,1,2,3,1,0,0,106.3275,110.0227,1.4306,3.6953,30,
113,1,6,2,325,1,45.5714,107.1663,76.4239,3,2,1,1,0,0,1,45.5714,26.6766,1.7777,-18.8948,20,
113,1,6,2,326,1,49.5589,349.7847,196.7966,3,1,2,3,1,0,0,196.7966,200.3497,1.25,3.5531,30,
113,1,6,2,327,0,348.8138,168.6138,199.2722,0,0,0,1,0,0,0,348.8138,344.4939,1.9305,-4.3199,30,
113,1,6,2,328,0,78.2539,199.2359,106.7295,0,0,0,2,0,0,0,199.2359,203.6285,1.9651,4.3926,30,
113,1,6,2,329,1,76.845,47.1161,17.8572,2,3,1,1,0,0,1,76.845,70.335,1.486,-6.51,30,
113,1,6,2,330,0,256.9032,46.848,228.7657,0,0,0,3,0,0,0,228.7657,223.1952,1.1876,-5.5704,30,
113,1,6,2,331,1,315.9509,345.0095,49.2889,3,1,2,3,1,0,0,49.2889,53.5095,1.0972,4.2206,30,
113,1,6,2,332,0,49.7089,18.4318,196.6558,0,0,0,1,0,0,0,49.7089,41.7828,1.5415,-7.9261,30,
113,1,6,2,333,1,108.3529,316.4577,256.6174,2,1,3,2,1,0,0,316.4577,331.4331,0.89578,14.9754,20,
113,1,6,2,334,1,348.0766,49.1223,287.0703,1,3,2,1,1,0,0,348.0766,344.5852,1.6179,-3.4914,30,
113,1,6,2,335,1,317.7201,255.9044,346.3804,3,2,1,3,1,0,0,346.3804,341.3212,0.95135,-5.0592,30,
113,1,6,2,336,1,135.7551,227.0511,289.4652,2,3,1,3,0,1,0,289.4652,NaN,100000,999,0,
113,1,6,2,337,1,108.0557,258.5258,345.1416,3,1,2,3,1,0,0,345.1416,351.4882,0.70134,6.3466,30,
113,1,6,2,338,1,349.3055,317.223,286.933,1,3,2,1,1,0,0,349.3055,169.1844,0.868,179.8788,0,
113,1,6,2,339,0,289.2184,139.4593,48.4279,0,0,0,2,0,0,0,139.4593,154.582,1.5557,15.1227,20,
113,1,6,2,340,0,107.1287,259.3308,167.4032,0,0,0,1,0,0,0,107.1287,69.9993,0.86795,-37.1294,0,
113,1,6,2,341,0,259.2239,106.175,47.5414,0,0,0,3,0,0,0,47.5414,37.3766,1.0485,-10.1649,30,
113,1,6,2,342,0,286.65,258.7524,48.9783,0,0,0,3,0,0,0,48.9783,52.3427,1.0555,3.3645,30,
113,1,6,2,343,1,46.7631,288.5474,17.9435,3,1,2,3,1,0,0,17.9435,27.412,0.83329,9.4685,30,
113,1,6,2,344,0,136.7238,19.2851,166.4328,0,0,0,2,0,0,0,19.2851,21.5089,0.7638,2.2239,40,
113,1,6,2,345,0,169.0589,257.2943,108.3798,0,0,0,3,0,0,0,108.3798,109.5395,1.1666,1.1597,40,
113,1,6,2,346,0,255.9856,166.1645,286.676,0,0,0,2,0,0,0,166.1645,162.1744,1.4304,-3.99,30,
113,1,6,2,347,0,319.7687,198.8048,165.2789,0,0,0,2,0,0,0,198.8048,201.2884,1.6666,2.4835,40,
113,1,6,2,348,1,109.3766,17.0994,229.6522,1,3,2,1,1,0,0,109.3766,132.029,0.80523,22.6524,10,
113,1,6,2,349,1,199.938,258.8847,318.5844,1,3,2,1,1,0,0,199.938,204.2888,0.68055,4.3508,30,
113,1,6,2,350,1,347.053,318.8349,48.9335,1,2,3,1,1,0,0,347.053,342.1119,1.736,-4.9411,30,
113,1,6,2,351,1,195.9885,47.393,79.4445,1,2,3,1,1,0,0,195.9885,199.6151,0.83331,3.6266,30,
113,1,6,2,352,1,167.5783,45.0642,79.143,1,3,2,1,1,0,0,167.5783,170.5589,0.6666,2.9806,40,
113,1,6,2,353,1,258.7937,135.4168,197.5637,3,2,1,3,1,0,0,197.5637,196.5316,0.97223,-1.0321,40,
113,1,6,2,354,1,135.6245,75.2559,258.1976,2,1,3,3,0,0,1,258.1976,257.5794,0.97207,-0.61816,40,
113,1,6,2,355,1,18.7479,107.9057,169.7624,3,2,1,3,1,0,0,169.7624,171.1303,1.0347,1.3679,40,
113,1,6,2,356,0,318.0068,49.3424,199.0784,0,0,0,1,0,0,0,318.0068,320.8208,1.1736,2.814,40,
113,1,6,2,357,0,347.3046,136.755,108.0261,0,0,0,3,0,0,0,108.0261,109.2614,1.1872,1.2353,40,
113,1,6,2,358,1,137.5036,257.6435,105.0708,1,3,2,3,0,1,0,105.0708,NaN,100000,999,0,
113,1,6,2,359,0,15.3835,46.5001,105.5262,0,0,0,2,0,0,0,46.5001,49.48,0.71528,2.98,40,
113,1,6,2,360,0,137.304,167.061,199.7356,0,0,0,1,0,0,0,137.304,158.1749,0.79205,20.8709,20,
113,1,7,1,361,0,198.5388,255.7908,109.8841,0,0,0,1,0,0,0,198.5388,201.4986,1.0278,2.9598,40,
113,1,7,1,362,0,228.3049,318.7755,107.5883,0,0,0,1,0,0,0,228.3049,207.9538,0.84063,-20.3512,20,
113,1,7,1,363,1,227.5244,48.3865,319.0119,2,1,3,1,0,1,0,227.5244,231.1257,1.4999,3.6013,30,
113,1,7,1,364,0,47.8729,198.636,229.3965,0,0,0,2,0,0,0,198.636,202.2106,1.9652,3.5746,30,
113,1,7,1,365,0,226.3707,75.4554,168.3297,0,0,0,1,0,0,0,226.3707,225.4344,1.2291,-0.93628,40,
113,1,7,1,366,1,255.7149,196.3639,49.8544,1,3,2,1,1,0,0,255.7149,244.1759,1.0069,-11.539,30,
113,1,7,1,367,0,225.4717,199.0995,316.8737,0,0,0,2,0,0,0,199.0995,184.4188,1.5624,-14.6807,20,
113,1,7,1,368,1,165.0584,108.9805,255.9107,1,3,2,1,1,0,0,165.0584,167.9831,0.45838,2.9246,40,
113,1,7,1,369,0,18.1968,49.1557,318.5436,0,0,0,2,0,0,0,49.1557,47.7275,1.2846,-1.4282,40,
113,1,7,1,370,1,15.8828,135.3205,228.4285,3,1,2,1,0,1,0,15.8828,29.2013,1.736,13.3186,20,
113,1,7,1,371,1,227.3627,15.6079,166.3986,2,3,1,2,1,0,0,15.6079,27.6991,1.3825,12.0912,20,
113,1,7,1,372,1,75.834,287.2981,199.5892,3,2,1,1,0,0,1,75.834,55.3515,1.0415,-20.4825,20,
113,1,7,1,373,1,165.477,288.9474,18.5358,2,1,3,2,1,0,0,288.9474,298.3343,0.9722,9.3868,30,
113,1,7,1,374,0,229.7738,195.9716,257.3334,0,0,0,1,0,0,0,229.7738,234.231,1.0834,4.4573,30,
113,1,7,1,375,0,197.6767,107.8332,75.5793,0,0,0,3,0,0,0,75.5793,43.5339,1.0833,-32.0454,0,
113,1,7,1,376,1,199.0995,107.7721,288.9407,1,3,2,2,0,0,1,107.7721,87.9156,1.2986,-19.8564,20,
113,1,7,1,377,1,167.3544,108.1335,136.0414,1,3,2,1,1,0,0,167.3544,168.027,0.81949,0.67266,40,
113,1,7,1,378,1,136.2911,47.1604,165.1779,3,1,2,3,1,0,0,165.1779,186.3057,1.5208,21.1277,10,
113,1,7,1,379,0,167.2274,15.1121,78.8827,0,0,0,2,0,0,0,15.1121,27.1046,1.2151,11.9925,30,
113,1,7,1,380,1,347.0676,316.6174,256.7231,1,2,3,1,1,0,0,347.0676,348.4174,2.6318,1.3498,40,
113,1,7,1,381,0,139.2648,79.7287,225.5912,0,0,0,2,0,0,0,79.7287,76.8745,1.0972,-2.8542,40,
113,1,7,1,382,1,46.9562,17.8105,349.7842,1,2,3,3,0,0,1,349.7842,334.4392,0.86806,-15.345,20,
113,1,7,1,383,1,349.3938,16.6495,45.9701,2,1,3,2,1,0,0,16.6495,32.0541,0.79863,15.4045,20,
113,1,7,1,384,0,345.4379,106.2488,16.3081,0,0,0,2,0,0,0,106.2488,99.5739,1.361,-6.6749,30,
113,1,7,1,385,0,166.3045,197.6022,15.1703,0,0,0,2,0,0,0,197.6022,196.8322,1.6736,-0.77006,40,
113,1,7,1,386,1,196.0469,228.681,257.0305,2,3,1,2,1,0,0,228.681,235.7721,1.2361,7.0911,30,
113,1,7,1,387,1,319.7509,288.9214,105.3713,1,2,3,2,0,1,0,288.9214,289.7562,1.1387,0.83475,40,
113,1,7,1,388,1,135.5174,286.1066,229.2508,2,3,1,2,1,0,0,286.1066,292.5788,1.0833,6.4722,30,
113,1,7,1,389,1,195.4797,48.2247,257.4806,2,3,1,2,1,0,0,48.2247,43.9618,0.87494,-4.2629,30,
113,1,7,1,390,1,319.877,258.4904,166.2298,1,3,2,2,0,0,1,258.4904,253.3379,2.111,-5.1525,30,
113,1,7,1,391,0,196.8362,165.0846,46.1772,0,0,0,2,0,0,0,165.0846,194.6679,1.7846,29.5833,10,
113,1,7,1,392,1,78.4084,45.9453,197.3613,3,1,2,3,1,0,0,197.3613,188.2712,1.1804,-9.0901,30,
113,1,7,1,393,1,348.2589,259.4634,197.2511,1,3,2,1,1,0,0,348.2589,351.8224,1.125,3.5635,30,
113,1,7,1,394,1,287.5291,227.399,348.5527,3,1,2,2,0,0,1,227.399,203.172,1.7638,-24.227,10,
113,1,7,1,395,1,347.9773,318.0348,108.2215,3,1,2,3,1,0,0,108.2215,104.4698,1.438,-3.7518,30,
113,1,7,1,396,1,48.7538,19.8263,169.3337,2,1,3,1,0,1,0,48.7538,52.7351,1.361,3.9812,30,
113,1,7,1,397,0,345.4162,45.9876,199.484,0,0,0,3,0,0,0,199.484,191.1724,1.1944,-8.3116,30,
113,1,7,1,398,0,77.6311,257.6825,318.5624,0,0,0,3,0,0,0,318.5624,316.0284,0.70138,-2.534,40,
113,1,7,1,399,1,106.4033,169.3439,319.0106,2,3,1,2,1,0,0,169.3439,172.6575,1.5971,3.3136,30,
113,1,7,1,400,1,166.8531,318.2446,137.8389,2,1,3,2,1,0,0,318.2446,337.5222,1.2083,19.2776,20,
113,1,7,1,401,1,109.0131,46.8789,195.2394,3,1,2,3,1,0,0,195.2394,203.9748,1.479,8.7355,30,
113,1,7,1,402,0,289.222,165.6705,19.4065,0,0,0,1,0,0,0,289.222,285.2849,1.0347,-3.9371,30,
113,1,7,1,403,1,165.0021,15.0146,79.6285,3,1,2,1,0,1,0,165.0021,155.4238,1.2569,-9.5783,30,
113,1,7,1,404,0,17.9009,107.4646,77.7947,0,0,0,3,0,0,0,77.7947,50.9509,0.82638,-26.8438,10,
113,1,7,1,405,1,289.1558,77.0112,137.5159,2,1,3,2,1,0,0,77.0112,76.5072,0.70829,-0.50402,40,
113,1,7,1,406,0,256.7734,346.949,137.9254,0,0,0,3,0,0,0,137.9254,132.3852,1.1805,-5.5402,30,
113,1,7,1,407,0,347.2501,138.4776,48.5297,0,0,0,3,0,0,0,48.5297,45.5199,0.97915,-3.0098,30,
113,1,7,1,408,1,48.7984,137.736,168.8891,3,2,1,3,1,0,0,168.8891,160.7417,1.0833,-8.1474,30,
113,1,7,1,409,0,347.1964,77.6894,255.2459,0,0,0,2,0,0,0,77.6894,81.2432,0.94441,3.5538,30,
113,1,7,1,410,0,319.2934,289.4537,75.7854,0,0,0,2,0,0,0,289.4537,320.9922,2.2984,31.5384,0,
113,1,7,1,411,1,346.4156,258.1117,285.5164,3,1,2,1,0,1,0,346.4156,337.4007,3.2359,-9.0149,30,
113,1,7,1,412,1,349.3846,168.8403,78.4254,1,2,3,3,0,0,1,78.4254,69.1258,1.0832,-9.2995,30,
113,1,7,1,413,1,76.3235,259.4508,225.252,3,1,2,3,1,0,0,225.252,220.8096,0.73605,-4.4425,30,
113,1,7,1,414,0,318.9071,109.8242,346.1235,0,0,0,2,0,0,0,109.8242,121.3397,1.118,11.5156,30,
113,1,7,1,415,1,345.0028,199.5211,75.7941,2,3,1,2,1,0,0,199.5211,206.3537,1.4652,6.8326,30,
113,1,7,1,416,0,347.0965,108.2064,225.63,0,0,0,3,0,0,0,225.63,204.4467,1.2706,-21.1833,10,
113,1,7,1,417,1,256.8705,108.5109,15.9167,2,1,3,1,0,1,0,256.8705,238.4924,1.3819,-18.3781,20,
113,1,7,1,418,0,106.3591,228.5253,48.3932,0,0,0,3,0,0,0,48.3932,29.4757,0.97919,-18.9175,20,
113,1,7,1,419,1,76.4711,285.5173,255.1054,2,3,1,2,1,0,0,285.5173,307.6276,0.81254,22.1102,10,
113,1,7,1,420,1,78.9722,196.8961,319.4619,1,2,3,1,1,0,0,78.9722,61.1462,1.4027,-17.8261,20,
113,1,8,1,421,1,346.1694,138.926,199.3548,1,2,3,1,1,0,0,346.1694,349.0807,0.84677,2.9113,40,
113,1,8,1,422,1,108.9719,316.758,286.6712,1,2,3,3,0,0,1,286.6712,267.0947,1.0277,-19.5765,20,
113,1,8,1,423,1,288.9241,345.9003,316.63,1,3,2,1,1,0,0,288.9241,299.2681,1.0486,10.344,30,
113,1,8,1,424,1,167.0112,318.2278,48.0535,2,3,1,3,0,1,0,48.0535,42.8248,1.4512,-5.2287,30,
113,1,8,1,425,1,19.1508,107.275,197.0279,1,3,2,1,1,0,0,19.1508,27.7655,1.4791,8.6147,30,
113,1,8,1,426,0,317.7142,287.6453,198.7701,0,0,0,1,0,0,0,317.7142,322.7855,1,5.0713,30,
113,1,8,1,427,1,166.6075,345.8089,138.7094,1,3,2,1,1,0,0,166.6075,141.0523,1.0485,-25.5552,10,
113,1,8,1,428,1,257.4661,166.7634,108.0595,3,1,2,3,1,0,0,108.0595,82.5962,1.3332,-25.4633,10,
113,1,8,1,429,1,46.7664,105.9197,317.8253,1,3,2,3,0,1,0,317.8253,313.5308,1.4097,-4.2945,30,
113,1,8,1,430,1,316.2826,226.5869,345.6649,2,3,1,2,1,0,0,226.5869,237.0544,1.986,10.4675,30,
113,1,8,1,431,1,318.8858,136.2459,197.6585,3,2,1,3,1,0,0,197.6585,201.8278,1.1666,4.1693,30,
113,1,8,1,432,1,196.5339,168.3692,15.2808,3,1,2,3,1,0,0,15.2808,20.814,0.91721,5.5332,30,
113,1,8,1,433,1,255.8013,286.1659,15.8192,2,1,3,2,1,0,0,286.1659,287.5325,0.95135,1.3667,40,
113,1,8,1,434,0,49.8423,256.4504,195.0787,0,0,0,1,0,0,0,49.8423,47.8224,1.6388,-2.0198,40,
113,1,8,1,435,1,168.1037,255.826,346.6466,3,2,1,3,1,0,0,346.6466,340.8657,0.81939,-5.781,30,
113,1,8,1,436,1,167.0257,319.4432,17.8753,3,1,2,1,0,1,0,167.0257,170.6857,0.99299,3.6599,30,
113,1,8,1,437,1,18.741,228.124,108.6405,2,1,3,2,1,0,0,228.124,236.1356,1.1528,8.0116,30,
113,1,8,1,438,0,317.32,168.8455,256.6747,0,0,0,3,0,0,0,256.6747,263.4522,0.8958,6.7775,30,
113,1,8,1,439,0,255.6531,106.225,19.3318,0,0,0,3,0,0,0,19.3318,22.1625,1.0973,2.8307,40,
113,1,8,1,440,1,259.9968,49.8928,18.8239,1,2,3,1,1,0,0,259.9968,254.7809,0.72221,-5.2159,30,
113,1,8,1,441,0,225.2548,346.4091,15.6676,0,0,0,3,0,0,0,15.6676,23.8616,0.88181,8.1939,30,
113,1,8,1,442,0,106.3592,135.8795,348.878,0,0,0,1,0,0,0,106.3592,133.1557,0.81938,26.7966,10,
113,1,8,1,443,0,17.0797,198.9739,349.3836,0,0,0,1,0,0,0,17.0797,36.065,2.229,18.9853,20,
113,1,8,1,444,0,229.0337,77.2781,107.936,0,0,0,3,0,0,0,107.936,108.9215,1.0624,0.98548,40,
113,1,8,1,445,1,345.4404,139.5373,196.9928,3,1,2,2,0,0,1,139.5373,157.2218,1.5415,17.6845,20,
113,1,8,1,446,1,16.3998,288.0065,256.3468,3,2,1,3,1,0,0,256.3468,257.5722,0.93051,1.2254,40,
113,1,8,1,447,1,257.2917,136.6432,169.9564,2,1,3,2,1,0,0,136.6432,140.531,1.0903,3.8878,30,
113,1,8,1,448,0,346.9137,48.6526,108.7309,0,0,0,3,0,0,0,108.7309,108.8712,1.0485,0.14027,40,
113,1,8,1,449,1,195.6123,315.7137,16.8821,1,3,2,1,1,0,0,195.6123,190.1162,0.93741,-5.4961,30,
113,1,8,1,450,1,259.9911,109.775,347.5666,2,1,3,1,0,1,0,259.9911,262.7855,1.5207,2.7945,40,
113,1,8,1,451,0,48.9206,255.8028,195.7729,0,0,0,3,0,0,0,195.7729,187.3639,1.236,-8.409,30,
113,1,8,1,452,1,229.5021,285.9138,79.6101,3,2,1,2,0,1,0,285.9138,308.7219,1.4513,22.8081,10,
113,1,8,1,453,1,46.9212,109.2804,16.7781,2,1,3,2,1,0,0,109.2804,115.4246,1.0069,6.1442,30,
113,1,8,1,454,1,285.5753,137.4622,167.1664,1,2,3,1,1,0,0,285.5753,293.8746,0.80556,8.2993,30,
113,1,8,1,455,0,225.7687,107.1047,345.2205,0,0,0,2,0,0,0,107.1047,80.4953,1.2222,-26.6094,10,
113,1,8,1,456,0,259.544,198.8611,345.6215,0,0,0,3,0,0,0,345.6215,345.7039,1.438,0.08239,40,
113,1,8,1,457,1,259.1287,317.8346,47.8808,3,2,1,3,1,0,0,47.8808,46.5227,1.118,-1.3581,40,
113,1,8,1,458,0,345.2443,139.0659,256.0072,0,0,0,1,0,0,0,345.2443,321.14,1.0624,-24.1044,10,
113,1,8,1,459,1,75.6716,225.2684,316.0299,2,1,3,2,1,0,0,225.2684,224.2596,1.3263,-1.0088,40,
113,1,8,1,460,1,318.9342,79.1196,16.9142,3,1,2,3,1,0,0,16.9142,15.2666,0.92358,-1.6476,40,
113,1,8,1,461,0,137.6481,259.4322,199.0779,0,0,0,2,0,0,0,259.4322,252.4661,1.3195,-6.9661,30,
113,1,8,1,462,0,285.2241,46.6735,79.0129,0,0,0,3,0,0,0,79.0129,80.3309,1.1319,1.318,40,
113,1,8,1,463,0,257.1099,198.1514,285.1967,0,0,0,3,0,0,0,285.1967,286.959,0.86801,1.7623,40,
113,1,8,1,464,1,345.5319,225.4823,316.9794,2,1,3,2,1,0,0,225.4823,216.8617,1.1041,-8.6206,30,
113,1,8,1,465,1,225.1487,349.2081,288.7696,1,3,2,3,0,1,0,288.7696,288.3317,0.97215,-0.43796,40,
113,1,8,1,466,1,139.8569,76.621,16.013,3,1,2,2,0,0,1,76.621,82.0587,1.4165,5.4377,30,
113,1,8,1,467,1,256.5495,196.6591,345.933,2,3,1,2,1,0,0,196.6591,195.0043,1.2569,-1.6548,40,
113,1,8,1,468,1,137.3453,345.5207,76.8608,3,1,2,3,1,0,0,76.8608,85.7927,1.1874,8.9319,30,
113,1,8,1,469,0,198.1184,15.3786,256.4987,0,0,0,1,0,0,0,198.1184,194.093,0.95834,-4.0255,30,
113,1,8,1,470,1,319.5611,197.8195,168.9727,1,2,3,3,0,0,1,168.9727,167.6424,1.7568,-1.3303,40,
113,1,8,1,471,1,287.9795,199.0172,76.1351,3,2,1,1,0,0,1,287.9795,290.6986,1.2639,2.7191,40,
113,1,8,1,472,1,166.389,315.5156,75.9487,2,3,1,3,0,1,0,75.9487,64.0883,1.2082,-11.8605,30,
113,1,8,1,473,1,196.2629,17.998,166.2065,1,2,3,1,1,0,0,196.2629,193.3814,0.75695,-2.8814,40,
113,1,8,1,474,0,319.9973,78.3677,197.7492,0,0,0,1,0,0,0,319.9973,328.4669,1.2361,8.4695,30,
113,1,8,1,475,1,346.695,318.6023,139.507,2,3,1,2,1,0,0,318.6023,344.0568,1.0834,25.4545,10,
113,1,8,1,476,0,318.3723,49.6626,259.9424,0,0,0,2,0,0,0,49.6626,48.2962,0.85407,-1.3664,40,
113,1,8,1,477,1,49.9161,226.8259,76.3773,3,2,1,3,1,0,0,76.3773,75.8377,1.1805,-0.53961,40,
113,1,8,1,478,1,165.5087,227.7993,255.6139,3,2,1,3,1,0,0,255.6139,249.0588,1.2012,-6.555,30,
113,1,8,1,479,0,75.9708,259.7944,19.7697,0,0,0,2,0,0,0,259.7944,243.8184,1.4235,-15.9759,20,
113,1,8,1,480,1,347.2661,46.5168,135.6348,1,2,3,2,0,1,0,46.5168,231.3712,1.6872,-175.1456,0,
