Subject,Session,Block,Condition,Trial,whetherCued,leftStim,rightStim,midStim,remCueLoc,fogCueLoc,neutralCueLoc,probeCueLoc,probeRem,probeForget,probeNeutral,Target,Estimate,RT,Error,Points
101,1,1,1,1,0,136.1214,256.3453,18.3652,0,0,0,2,0,0,0,256.3453,258.1909,2.6664,1.8456,40,
101,1,1,1,2,0,289.4795,225.4954,105.2208,0,0,0,1,0,0,0,289.4795,294.2504,2.8396,4.771,30,
101,1,1,1,3,1,347.5064,287.1586,109.9878,2,1,3,2,1,0,0,287.1586,242.9391,2.4095,-44.2195,0,
101,1,1,1,4,0,348.6529,108.2324,289.1658,0,0,0,1,0,0,0,348.6529,342.6822,2.4229,-5.9707,30,
101,1,1,1,5,1,107.4617,228.4737,289.8637,3,2,1,3,1,0,0,289.8637,299.6816,0.97162,9.8179,30,
101,1,1,1,6,1,138.3022,255.2378,226.7439,2,3,1,1,0,0,1,138.3022,203.3325,2.3958,65.0303,0,
101,1,1,1,7,1,197.5189,257.448,49.3852,3,1,2,3,1,0,0,49.3852,35.4403,1.7016,-13.945,20,
101,1,1,1,8,1,105.0963,165.4194,19.874,1,2,3,1,1,0,0,105.0963,127.9002,1.3054,22.8039,10,
101,1,1,1,9,0,349.6502,286.9951,105.237,0,0,0,1,0,0,0,349.6502,64.6209,2.7914,74.9707,0,
101,1,1,1,10,0,259.389,197.9122,285.3534,0,0,0,1,0,0,0,259.389,278.3401,1.7634,18.9511,20,
101,1,1,1,11,1,317.5194,78.234,226.5387,2,1,3,2,1,0,0,78.234,58.4156,1.0554,-19.8185,20,
101,1,1,1,12,1,226.4331,199.0041,19.4806,2,1,3,2,1,0,0,199.0041,78.7456,2.09,-120.2585,0,
101,1,1,1,13,1,199.1477,319.2454,226.8627,1,2,3,1,1,0,0,199.1477,218.5891,1.5554,19.4414,20,
101,1,1,1,14,1,198.7837,137.0852,229.8589,1,2,3,2,0,1,0,137.0852,67.9462,2.8886,-69.139,0,
101,1,1,1,15,1,317.252,136.0284,79.4983,1,2,3,3,0,0,1,79.4983,303.2367,1.9998,-136.2615,0,
101,1,1,1,16,0,166.9501,227.4895,288.474,0,0,0,1,0,0,0,166.9501,191.5332,1.4236,24.583,10,
101,1,1,1,17,0,255.5852,109.0734,346.6243,0,0,0,3,0,0,0,346.6243,347.907,1.8331,1.2827,40,
101,1,1,1,18,1,19.1594,45.6717,75.3023,2,3,1,2,1,0,0,45.6717,36.9178,1.3113,-8.7539,30,
101,1,1,1,19,1,139.9843,17.7677,197.5773,1,2,3,1,1,0,0,139.9843,134.4557,1.7012,-5.5286,30,
101,1,1,1,20,1,169.6556,105.9539,16.2929,1,2,3,2,0,1,0,105.9539,49.9247,2.34,-56.0292,0,
101,1,1,1,21,0,198.6008,256.7345,227.585,0,0,0,1,0,0,0,198.6008,197.0823,1.7776,-1.5185,40,
101,1,1,1,22,0,47.1514,228.4688,289.7261,0,0,0,2,0,0,0,228.4688,52.4747,1.1943,-175.994,0,
101,1,1,1,23,0,288.3452,197.5011,346.09,0,0,0,1,0,0,0,288.3452,201.269,1.722,-87.0762,0,
101,1,1,1,24,1,229.3193,135.4885,169.5403,3,2,1,1,0,0,1,229.3193,206.3437,1.979,-22.9757,10,
101,1,1,1,25,1,137.5392,347.928,18.8144,1,2,3,1,1,0,0,137.5392,143.277,1.4235,5.7378,30,
101,1,1,1,26,0,17.7694,108.4003,196.8359,0,0,0,2,0,0,0,108.4003,73.559,2.937,-34.8413,0,
101,1,1,1,27,1,135.7013,16.3007,195.4341,3,2,1,3,1,0,0,195.4341,219.6171,1.1734,24.1831,10,
101,1,1,1,28,1,346.1034,285.0065,135.9459,1,2,3,2,0,1,0,285.0065,276.8474,3.7565,-8.1591,30,
101,1,1,1,29,0,105.3418,17.1816,75.8693,0,0,0,1,0,0,0,105.3418,199.1657,1.3402,93.8239,0,
101,1,1,1,30,1,166.1401,16.8543,319.4546,2,3,1,2,1,0,0,16.8543,20.3796,1.528,3.5253,30,
101,1,1,1,31,1,347.6621,78.5825,225.8965,2,3,1,1,0,0,1,347.6621,5.1172,1.7911,17.4551,20,
101,1,1,1,32,1,169.6783,319.0936,48.6413,1,3,2,1,1,0,0,169.6783,181.1,2.2706,11.4217,30,
101,1,1,1,33,1,108.812,17.8803,78.7383,3,1,2,3,1,0,0,78.7383,43.4706,1.2637,-35.2677,0,
101,1,1,1,34,1,347.6614,136.397,49.7312,2,3,1,2,1,0,0,136.397,149.6211,1.3815,13.2241,20,
101,1,1,1,35,0,78.6346,196.8692,47.9079,0,0,0,2,0,0,0,196.8692,61.4488,1.9094,-135.4204,0,
101,1,1,1,36,0,45.7597,16.9855,196.8736,0,0,0,3,0,0,0,196.8736,244.3726,1.8748,47.499,0,
101,1,1,1,37,1,138.2116,316.1063,79.1853,2,1,3,2,1,0,0,316.1063,328.8558,1.3471,12.7494,20,
101,1,1,1,38,0,319.2929,289.5553,168.4982,0,0,0,3,0,0,0,168.4982,208.8451,1.6665,40.3469,0,
101,1,1,1,39,1,287.6468,199.1499,49.2938,3,1,2,2,0,0,1,199.1499,147.0156,4.9439,-52.1343,0,
101,1,1,1,40,1,169.2518,139.5582,198.1964,1,3,2,1,1,0,0,169.2518,160.5226,1.5689,-8.7292,30,
101,1,1,1,41,1,169.1329,48.3844,286.038,3,2,1,3,1,0,0,286.038,304.1545,1.5414,18.1165,20,
101,1,1,1,42,1,287.2569,316.9132,48.9482,2,1,3,2,1,0,0,316.9132,311.6025,1.7568,-5.3107,30,
101,1,1,1,43,0,228.7938,349.9761,315.9329,0,0,0,3,0,0,0,315.9329,321.4178,1.6804,5.485,30,
101,1,1,1,44,1,285.9688,47.1618,258.7458,2,1,3,2,1,0,0,47.1618,59.6279,1.5555,12.466,20,
101,1,1,1,45,0,19.6749,137.3974,346.159,0,0,0,2,0,0,0,137.3974,174.692,1.9095,37.2946,0,
101,1,1,1,46,1,287.6548,259.506,317.7028,2,1,3,2,1,0,0,259.506,256.2339,3.0066,-3.2722,30,
101,1,1,1,47,0,105.9911,165.9754,316.6342,0,0,0,3,0,0,0,316.6342,313.0259,1.3954,-3.6083,30,
101,1,1,1,48,1,109.0699,259.4922,77.1462,3,1,2,1,0,1,0,109.0699,268.1752,2.0692,159.1053,0,
101,1,1,1,49,1,315.4649,347.3174,285.0467,1,2,3,1,1,0,0,315.4649,297.2124,2.7011,-18.2525,20,
101,1,1,1,50,0,77.1828,225.2461,105.2482,0,0,0,1,0,0,0,77.1828,103.6443,1.4096,26.4615,10,
101,1,1,1,51,1,17.3062,228.1966,259.5867,2,3,1,2,1,0,0,228.1966,71.8016,3.8258,-156.395,0,
101,1,1,1,52,1,19.9049,195.6352,286.1612,1,3,2,1,1,0,0,19.9049,35.508,2.3331,15.6031,20,
101,1,1,1,53,0,19.2845,75.217,318.4581,0,0,0,2,0,0,0,75.217,47.4928,1.5276,-27.7241,10,
101,1,1,1,54,1,79.095,348.1246,228.6928,3,2,1,3,1,0,0,228.6928,299.5347,1.6244,70.8419,0,
101,1,1,1,55,1,49.4771,227.9126,257.9137,1,3,2,1,1,0,0,49.4771,189.2349,2.0623,139.7577,0,
101,1,1,1,56,1,47.0319,136.931,228.049,2,1,3,3,0,0,1,228.049,228.6317,1.3192,0.58272,40,
101,1,1,1,57,1,77.6151,16.6265,49.1592,2,3,1,2,1,0,0,16.6265,17.8451,1.0624,1.2186,40,
101,1,1,1,58,0,137.6428,345.2572,78.7844,0,0,0,2,0,0,0,345.2572,15.5033,1.9235,30.2461,0,
101,1,1,1,59,0,168.7425,317.7165,226.6907,0,0,0,2,0,0,0,317.7165,346.9044,1.9444,29.1879,10,
101,1,1,1,60,1,315.1258,197.0721,138.657,2,1,3,3,0,0,1,138.657,159.9733,1.8401,21.3163,10,
101,1,2,1,61,0,315.8145,169.192,195.8378,0,0,0,3,0,0,0,195.8378,187.3496,2.9372,-8.4882,30,
101,1,2,1,62,0,109.7017,135.0292,228.0515,0,0,0,2,0,0,0,135.0292,116.8092,0.78471,-18.22,20,
101,1,2,1,63,1,256.4523,47.0128,289.3103,1,3,2,3,0,1,0,289.3103,262.9631,1.0694,-26.3472,10,
101,1,2,1,64,1,319.2054,76.7725,167.1503,1,3,2,2,0,0,1,76.7725,90.4928,1.2433,13.7202,20,
101,1,2,1,65,1,289.8173,135.4295,167.5025,3,2,1,3,1,0,0,167.5025,344.2755,0.77071,176.773,0,
101,1,2,1,66,0,46.5193,197.4165,346.6891,0,0,0,1,0,0,0,46.5193,211.1028,2.6038,164.5835,0,
101,1,2,1,67,0,79.9262,107.7974,169.668,0,0,0,2,0,0,0,107.7974,46.6843,2.0415,-61.113,0,
101,1,2,1,68,1,135.5422,165.1806,228.0905,2,1,3,2,1,0,0,165.1806,61.1399,0.88185,-104.0406,0,
101,1,2,1,69,0,259.4502,346.651,166.1485,0,0,0,1,0,0,0,259.4502,219.4178,2.3539,-40.0324,0,
101,1,2,1,70,0,135.5697,19.8928,79.243,0,0,0,3,0,0,0,79.243,224.8876,0.81275,145.6446,0,
101,1,2,1,71,0,285.5402,17.2994,137.2544,0,0,0,3,0,0,0,137.2544,150.8576,1.6736,13.6032,20,
101,1,2,1,72,1,138.7045,347.534,165.9996,2,3,1,2,1,0,0,347.534,1.8234,1.2781,14.2894,20,
101,1,2,1,73,1,169.3879,345.0718,46.4715,1,2,3,1,1,0,0,169.3879,164.045,1.3749,-5.3428,30,
101,1,2,1,74,1,227.7164,78.5126,19.7822,2,1,3,2,1,0,0,78.5126,78.1502,1.1387,-0.36239,40,
101,1,2,1,75,0,78.8751,319.5709,48.9128,0,0,0,2,0,0,0,319.5709,331.8343,2.9025,12.2633,20,
101,1,2,1,76,0,48.4957,168.9813,137.2079,0,0,0,3,0,0,0,137.2079,154.0822,3.4301,16.8742,20,
101,1,2,1,77,0,315.7287,287.9252,345.3668,0,0,0,3,0,0,0,345.3668,340.5946,1.4026,-4.7722,30,
101,1,2,1,78,0,286.8252,226.5457,315.6046,0,0,0,1,0,0,0,286.8252,276.0058,2.0275,-10.8194,30,
101,1,2,1,79,1,256.6999,319.2336,46.2303,1,3,2,1,1,0,0,256.6999,267.5752,1.5137,10.8752,30,
101,1,2,1,80,1,135.68,78.9445,105.462,2,1,3,1,0,1,0,135.68,120.5496,1.7359,-15.1304,20,
101,1,2,1,81,1,75.0988,319.8215,349.8519,2,3,1,2,1,0,0,319.8215,27.1522,1.3677,67.3308,0,
101,1,2,1,82,0,19.6916,226.2771,107.6658,0,0,0,2,0,0,0,226.2771,228.6645,2.7355,2.3874,40,
101,1,2,1,83,0,138.9798,226.1669,78.0042,0,0,0,2,0,0,0,226.1669,220.4385,2.5622,-5.7283,30,
101,1,2,1,84,0,346.4868,16.9821,317.1038,0,0,0,3,0,0,0,317.1038,331.5785,1.7706,14.4747,20,
101,1,2,1,85,1,317.7541,79.3545,195.2113,1,2,3,2,0,1,0,79.3545,71.2538,1.9094,-8.1007,30,
101,1,2,1,86,1,47.5997,169.9459,257.4496,3,2,1,1,0,0,1,47.5997,226.3788,1.2221,178.7791,0,
101,1,2,1,87,1,79.0846,195.9474,105.6185,1,2,3,1,1,0,0,79.0846,89.7399,1.1524,10.6554,30,
101,1,2,1,88,1,76.6599,319.1987,286.8586,3,2,1,1,0,0,1,76.6599,239.4433,1.0207,162.7833,0,
101,1,2,1,89,1,135.784,76.6302,46.5703,1,2,3,1,1,0,0,135.784,88.9588,1.4929,-46.8252,0,
101,1,2,1,90,0,286.0726,228.3995,167.7865,0,0,0,3,0,0,0,167.7865,186.3211,1.2708,18.5346,20,
101,1,2,1,91,1,287.0116,195.9092,139.2813,2,3,1,3,0,1,0,139.2813,175.1667,1.7013,35.8854,0,
101,1,2,1,92,1,225.9992,318.0367,107.7152,3,2,1,1,0,0,1,225.9992,145.1773,5.3188,-80.8219,0,
101,1,2,1,93,1,48.791,169.4352,15.344,1,3,2,1,1,0,0,48.791,207.994,1.0832,159.203,0,
101,1,2,1,94,0,16.9081,317.8384,169.4393,0,0,0,1,0,0,0,16.9081,28.3685,1.3398,11.4604,30,
101,1,2,1,95,1,139.6308,166.4925,256.6904,2,3,1,3,0,1,0,256.6904,239.3728,1.3682,-17.3177,20,
101,1,2,1,96,1,346.3991,77.235,47.9379,1,2,3,1,1,0,0,346.3991,351.3456,2.3816,4.9465,30,
101,1,2,1,97,1,349.442,316.1658,289.308,2,3,1,2,1,0,0,316.1658,75.7924,0.95131,119.6266,0,
101,1,2,1,98,0,287.6372,108.625,348.0371,0,0,0,2,0,0,0,108.625,128.1132,1.7495,19.4882,20,
101,1,2,1,99,0,349.0746,135.7025,259.3993,0,0,0,1,0,0,0,349.0746,320.7738,1.8262,-28.3008,10,
101,1,2,1,100,0,15.4219,229.8604,285.1573,0,0,0,2,0,0,0,229.8604,252.7608,2.1109,22.9004,10,
101,1,2,1,101,0,318.2673,77.4483,349.8643,0,0,0,2,0,0,0,77.4483,46.1937,2.4857,-31.2546,0,
101,1,2,1,102,0,287.6205,225.601,105.889,0,0,0,3,0,0,0,105.889,129.2309,3.4371,23.342,10,
101,1,2,1,103,1,77.9122,257.105,345.4603,1,3,2,1,1,0,0,77.9122,87.442,1.9092,9.5299,30,
101,1,2,1,104,1,15.8762,165.966,258.0821,1,3,2,1,1,0,0,15.8762,213.0522,1.4026,-162.824,0,
101,1,2,1,105,1,288.861,317.3768,18.4045,3,1,2,3,1,0,0,18.4045,218.9203,0.68761,-159.4842,0,
101,1,2,1,106,0,139.1315,79.956,197.6197,0,0,0,3,0,0,0,197.6197,190.6787,2.2428,-6.941,30,
101,1,2,1,107,1,317.3578,347.715,225.2985,2,3,1,2,1,0,0,347.715,18.0393,1.9929,30.3243,0,
101,1,2,1,108,0,79.1667,256.0186,227.7221,0,0,0,2,0,0,0,256.0186,259.1938,1.7221,3.1753,30,
101,1,2,1,109,1,165.6614,49.3524,348.0148,2,3,1,1,0,0,1,165.6614,158.5686,1.361,-7.0929,30,
101,1,2,1,110,1,76.8968,319.3234,17.0998,1,2,3,1,1,0,0,76.8968,92.0233,1.2985,15.1265,20,
101,1,2,1,111,0,349.1405,287.5372,16.8308,0,0,0,3,0,0,0,16.8308,9.3886,2.1803,-7.4422,30,
101,1,2,1,112,0,167.8456,109.3752,136.7429,0,0,0,2,0,0,0,109.3752,141.0621,1.9859,31.6869,0,
101,1,2,1,113,0,17.3376,75.7067,45.3407,0,0,0,1,0,0,0,17.3376,70.0495,1.7845,52.7119,0,
101,1,2,1,114,1,346.2021,48.4245,319.1963,3,2,1,3,1,0,0,319.1963,315.7018,1.6871,-3.4945,30,
101,1,2,1,115,0,316.9479,48.8765,285.8968,0,0,0,3,0,0,0,285.8968,311.345,1.6387,25.4482,10,
101,1,2,1,116,0,169.6136,317.8213,17.1573,0,0,0,3,0,0,0,17.1573,353.7013,1.7081,-23.456,10,
101,1,2,1,117,1,79.9629,257.2792,17.1302,1,3,2,3,0,1,0,17.1302,21.8362,1.6522,4.706,30,
101,1,2,1,118,1,348.4165,318.0428,46.0983,2,1,3,2,1,0,0,318.0428,346.5501,1.3124,28.5073,10,
101,1,2,1,119,1,169.7606,319.8793,345.1546,1,2,3,1,1,0,0,169.7606,175.9384,1.0971,6.1778,30,
101,1,2,1,120,1,196.2163,77.8571,319.9086,2,1,3,1,0,1,0,196.2163,177.7395,0.72227,-18.4769,20,
101,1,3,2,121,0,315.19,49.7712,258.7119,0,0,0,3,0,0,0,258.7119,299.9097,2.6872,41.1978,0,
101,1,3,2,122,1,256.3059,75.474,107.2548,2,3,1,2,1,0,0,75.474,70.4053,1.153,-5.0688,30,
101,1,3,2,123,1,46.3872,285.0305,346.8736,1,3,2,1,1,0,0,46.3872,80.2417,1.0415,33.8545,0,
101,1,3,2,124,0,105.9184,319.3083,75.1632,0,0,0,2,0,0,0,319.3083,59.0064,1.229,99.6981,0,
101,1,3,2,125,0,106.5588,195.2766,18.769,0,0,0,3,0,0,0,18.769,20.5666,1.9579,1.7976,40,
101,1,3,2,126,1,139.8817,17.9662,316.522,1,3,2,2,0,0,1,17.9662,32.2466,1.222,14.2804,20,
101,1,3,2,127,1,108.4447,349.7301,229.3677,1,3,2,1,1,0,0,108.4447,107.602,1.4721,-0.84264,40,
101,1,3,2,128,1,319.9646,15.8124,75.5678,3,1,2,3,1,0,0,75.5678,219.6197,1.1874,144.0518,0,
101,1,3,2,129,1,317.5047,196.66,135.8694,2,3,1,2,1,0,0,196.66,147.4077,0.81252,-49.2523,0,
101,1,3,2,130,1,287.6892,169.3546,108.6142,3,2,1,3,1,0,0,108.6142,134.5225,1.3193,25.9082,10,
101,1,3,2,131,1,347.3686,289.756,46.2448,2,1,3,2,1,0,0,289.756,333.2356,1.6456,43.4796,0,
101,1,3,2,132,0,167.2609,19.246,46.9522,0,0,0,2,0,0,0,19.246,10.8668,1.2288,-8.3792,30,
101,1,3,2,133,1,197.6056,138.8715,165.6013,2,3,1,2,1,0,0,138.8715,163.7097,1.125,24.8382,10,
101,1,3,2,134,1,167.5071,256.385,287.6698,3,2,1,1,0,0,1,167.5071,205.6523,1.8401,38.1452,0,
101,1,3,2,135,1,75.2679,196.8753,288.875,2,3,1,2,1,0,0,196.8753,195.2368,2.6456,-1.6385,40,
101,1,3,2,136,1,197.5604,348.6066,259.6442,3,1,2,3,1,0,0,259.6442,280.7213,1.486,21.0771,10,
101,1,3,2,137,0,168.4379,109.9343,348.8497,0,0,0,3,0,0,0,348.8497,332.41,1.2288,-16.4397,20,
101,1,3,2,138,0,198.6208,258.0684,348.9148,0,0,0,2,0,0,0,258.0684,201.3404,3.2219,-56.728,0,
101,1,3,2,139,1,345.3642,288.7561,229.1559,1,2,3,1,1,0,0,345.3642,323.1306,1.5622,-22.2336,10,
101,1,3,2,140,1,229.1626,289.9769,348.2488,3,2,1,1,0,0,1,229.1626,216.9047,1.3888,-12.2579,20,
101,1,3,2,141,1,196.0322,256.693,137.8706,1,3,2,1,1,0,0,196.0322,219.1129,1.3752,23.0807,10,
101,1,3,2,142,1,137.2949,199.3049,318.3042,3,2,1,3,1,0,0,318.3042,301.4751,1.361,-16.8291,20,
101,1,3,2,143,1,319.5075,166.5917,77.9854,3,2,1,3,1,0,0,77.9854,42.4782,1.8331,-35.5072,0,
101,1,3,2,144,1,198.7463,49.2093,255.8344,2,3,1,2,1,0,0,49.2093,52.7525,1.1388,3.5432,30,
101,1,3,2,145,0,47.6562,169.7795,195.3334,0,0,0,3,0,0,0,195.3334,198.7259,1.8817,3.3925,30,
101,1,3,2,146,1,285.7627,255.7778,345.4478,3,1,2,3,1,0,0,345.4478,343.4703,1.2781,-1.9776,40,
101,1,3,2,147,0,346.1715,287.3235,18.0969,0,0,0,1,0,0,0,346.1715,225.378,1.3953,-120.7935,0,
101,1,3,2,148,0,286.6012,47.4647,76.1083,0,0,0,1,0,0,0,286.6012,237.045,1.5762,-49.5562,0,
101,1,3,2,149,1,169.9519,135.1685,257.1213,3,2,1,3,1,0,0,257.1213,354.7894,0.90276,97.6682,0,
101,1,3,2,150,1,135.5186,76.8876,286.3143,1,3,2,1,1,0,0,135.5186,114.3372,1.2915,-21.1813,10,
101,1,3,2,151,1,136.9241,15.8132,228.9838,3,2,1,3,1,0,0,228.9838,213.094,1.1665,-15.8898,20,
101,1,3,2,152,1,256.3422,16.2905,47.405,2,1,3,1,0,1,0,256.3422,NaN,100000,999,0,
101,1,3,2,153,1,46.019,79.9667,135.4681,3,2,1,3,1,0,0,135.4681,328.6179,2.9094,-166.8502,0,
101,1,3,2,154,0,139.2935,49.6024,78.7542,0,0,0,3,0,0,0,78.7542,22.9611,1.3054,-55.793,0,
101,1,3,2,155,0,287.1087,317.0566,79.7957,0,0,0,1,0,0,0,287.1087,260.1725,1.3123,-26.9362,10,
101,1,3,2,156,1,108.3266,79.8213,348.3558,3,1,2,2,0,0,1,79.8213,88.0515,1.2429,8.2302,30,
101,1,3,2,157,1,75.3655,287.9028,346.4351,3,1,2,3,1,0,0,346.4351,331.5967,1.5276,-14.8384,20,
101,1,3,2,158,1,198.7184,106.9255,16.2575,3,2,1,3,1,0,0,16.2575,353.9911,1.3124,-22.2665,10,
101,1,3,2,159,1,19.4394,316.2826,169.834,1,2,3,3,0,0,1,169.834,162.3356,1.9581,-7.4984,30,
101,1,3,2,160,1,198.7854,49.4316,347.3611,1,2,3,2,0,1,0,49.4316,NaN,100000,999,0,
101,1,3,2,161,0,256.8834,287.5216,198.8175,0,0,0,3,0,0,0,198.8175,191.5466,1.7985,-7.2709,30,
101,1,3,2,162,0,15.4179,197.5633,289.1643,0,0,0,2,0,0,0,197.5633,189.7888,1.6319,-7.7745,30,
101,1,3,2,163,0,225.9814,285.6068,317.7185,0,0,0,3,0,0,0,317.7185,342.8913,1.7152,25.1728,10,
101,1,3,2,164,1,226.822,15.8574,348.9768,2,3,1,2,1,0,0,15.8574,37.5834,2.215,21.726,10,
101,1,3,2,165,0,108.4765,49.8046,227.7316,0,0,0,1,0,0,0,108.4765,94.7943,1.2637,-13.6822,20,
101,1,3,2,166,1,139.2915,349.5471,169.8083,2,3,1,2,1,0,0,349.5471,18.5959,1.5137,29.0488,10,
101,1,3,2,167,1,317.665,166.6339,78.011,1,2,3,1,1,0,0,317.665,134.89,1.68,177.225,0,
101,1,3,2,168,0,45.8568,286.6499,19.8324,0,0,0,1,0,0,0,45.8568,43.5999,1.8679,-2.2569,40,
101,1,3,2,169,0,106.7704,226.3312,346.4575,0,0,0,1,0,0,0,106.7704,98.9526,1.1874,-7.8178,30,
101,1,3,2,170,1,49.4181,287.1224,18.0363,2,3,1,2,1,0,0,287.1224,291.223,1.8817,4.1006,30,
101,1,3,2,171,0,17.7364,197.7674,108.1529,0,0,0,2,0,0,0,197.7674,211.3341,3.083,13.5667,20,
101,1,3,2,172,0,345.4081,166.3724,229.3376,0,0,0,2,0,0,0,166.3724,205.0064,1.1735,38.634,0,
101,1,3,2,173,0,198.8857,346.9197,288.5578,0,0,0,1,0,0,0,198.8857,205.2458,1.1527,6.3601,30,
101,1,3,2,174,0,285.827,225.908,348.4572,0,0,0,1,0,0,0,285.827,230.472,1.236,-55.355,0,
101,1,3,2,175,0,165.0106,319.7555,18.8315,0,0,0,3,0,0,0,18.8315,13.5221,1.1111,-5.3094,30,
101,1,3,2,176,0,45.903,107.8665,75.8178,0,0,0,2,0,0,0,107.8665,92.6639,1.0072,-15.2026,20,
101,1,3,2,177,0,46.1465,285.9111,225.8318,0,0,0,3,0,0,0,225.8318,247.9226,1.2568,22.0909,10,
101,1,3,2,178,0,108.3036,169.7062,19.8785,0,0,0,2,0,0,0,169.7062,21.306,1.1527,-148.4002,0,
101,1,3,2,179,1,259.2268,109.3944,138.7309,3,2,1,2,0,1,0,109.3944,NaN,100000,999,0,
101,1,3,2,180,1,17.2394,78.5482,169.7217,1,2,3,1,1,0,0,17.2394,24.8758,1.4721,7.6364,30,
101,1,4,2,181,1,228.2734,195.1307,18.9289,2,3,1,2,1,0,0,195.1307,29.6461,1.0413,-165.4846,0,
101,1,4,2,182,0,109.9695,258.0224,229.7245,0,0,0,3,0,0,0,229.7245,217.5042,1.2152,-12.2204,20,
101,1,4,2,183,1,285.552,166.0832,199.0551,1,2,3,1,1,0,0,285.552,90.0939,0.97901,164.5419,0,
101,1,4,2,184,0,108.221,255.3397,226.0396,0,0,0,3,0,0,0,226.0396,221.0446,1.1249,-4.9949,30,
101,1,4,2,185,1,319.6343,15.0415,79.1231,2,3,1,2,1,0,0,15.0415,21.1542,1.9095,6.1128,30,
101,1,4,2,186,1,289.6135,166.6016,349.2877,2,3,1,2,1,0,0,166.6016,189.6312,2.1735,23.0296,10,
101,1,4,2,187,1,135.0642,315.9331,77.4262,1,2,3,1,1,0,0,135.0642,120.7286,1.3398,-14.3356,20,
101,1,4,2,188,1,137.8393,227.1325,45.3812,1,2,3,1,1,0,0,137.8393,160.6428,1.1735,22.8036,10,
101,1,4,2,189,0,169.7982,15.4454,288.9887,0,0,0,1,0,0,0,169.7982,152.8202,1.479,-16.978,20,
101,1,4,2,190,0,137.5494,76.9126,259.5274,0,0,0,2,0,0,0,76.9126,83.4859,1.0624,6.5733,30,
101,1,4,2,191,1,345.9222,75.2283,289.4252,1,3,2,1,1,0,0,345.9222,335.7728,1.5276,-10.1494,30,
101,1,4,2,192,0,48.1135,105.3177,286.8675,0,0,0,2,0,0,0,105.3177,69.8395,1.0487,-35.4782,0,
101,1,4,2,193,1,76.7084,347.7434,17.3027,1,2,3,2,0,1,0,347.7434,NaN,100000,999,0,
101,1,4,2,194,1,257.1951,105.7453,195.1414,1,3,2,2,0,0,1,105.7453,80.7208,1.153,-25.0244,10,
101,1,4,2,195,1,317.404,105.3326,79.4889,1,3,2,1,1,0,0,317.404,292.8298,1.3606,-24.5742,10,
101,1,4,2,196,0,76.7007,169.5946,107.2813,0,0,0,1,0,0,0,76.7007,64.9977,1.0624,-11.703,30,
101,1,4,2,197,1,347.9954,168.0078,108.2471,3,1,2,2,0,0,1,168.0078,50.2196,0.68742,-117.7883,0,
101,1,4,2,198,0,136.8788,169.3173,286.4599,0,0,0,1,0,0,0,136.8788,207.051,1.7289,70.1722,0,
101,1,4,2,199,0,196.4215,17.1766,229.5188,0,0,0,3,0,0,0,229.5188,219.7143,1.2012,-9.8045,30,
101,1,4,2,200,1,287.6707,136.834,196.8197,1,3,2,1,1,0,0,287.6707,207.2748,1.2291,-80.3959,0,
101,1,4,2,201,1,229.9196,49.8989,16.2508,1,2,3,1,1,0,0,229.9196,225.622,1.5901,-4.2976,30,
101,1,4,2,202,1,195.0178,169.0762,228.1921,3,2,1,3,1,0,0,228.1921,225.8721,1.597,-2.32,40,
101,1,4,2,203,0,257.3316,289.7577,49.825,0,0,0,3,0,0,0,49.825,24.8576,1.1319,-24.9674,10,
101,1,4,2,204,1,259.0554,288.5523,139.8512,2,1,3,3,0,0,1,139.8512,141.7777,1.354,1.9265,40,
101,1,4,2,205,1,286.2257,165.3206,76.3157,1,3,2,1,1,0,0,286.2257,218.9445,1.104,-67.2811,0,
101,1,4,2,206,1,315.0382,228.0546,17.0404,1,2,3,1,1,0,0,315.0382,221.2759,1.1315,-93.7623,0,
101,1,4,2,207,0,108.5521,168.4433,16.6047,0,0,0,2,0,0,0,168.4433,14.9334,0.92346,-153.5099,0,
101,1,4,2,208,1,75.8955,138.1723,319.8148,3,1,2,3,1,0,0,319.8148,297.0931,0.88182,-22.7217,10,
101,1,4,2,209,1,169.5658,108.4126,319.7337,1,2,3,1,1,0,0,169.5658,142.9123,0.93046,-26.6535,10,
101,1,4,2,210,0,315.4142,19.752,75.0819,0,0,0,2,0,0,0,19.752,16.7538,1.0138,-2.9982,40,
101,1,4,2,211,1,317.3943,106.5406,48.7222,3,2,1,1,0,0,1,317.3943,301.0196,1.1596,-16.3747,20,
101,1,4,2,212,1,286.3409,257.7512,45.9026,3,2,1,3,1,0,0,45.9026,17.7223,1.3405,-28.1803,10,
101,1,4,2,213,0,77.0324,49.759,139.5599,0,0,0,1,0,0,0,77.0324,119.0112,1.1109,41.9789,0,
101,1,4,2,214,0,318.0144,166.8875,138.3247,0,0,0,3,0,0,0,138.3247,130.7179,1.5345,-7.6068,30,
101,1,4,2,215,0,198.4041,109.616,45.7642,0,0,0,1,0,0,0,198.4041,202.459,1.2777,4.0549,30,
101,1,4,2,216,0,45.5504,196.3961,258.8382,0,0,0,3,0,0,0,258.8382,298.38,1.1315,39.5418,0,
101,1,4,2,217,0,226.2324,48.3037,346.647,0,0,0,2,0,0,0,48.3037,42.6693,1.2221,-5.6344,30,
101,1,4,2,218,1,49.0048,137.7749,107.0944,2,1,3,1,0,1,0,49.0048,NaN,100000,999,0,
101,1,4,2,219,1,167.4934,18.693,255.0638,2,3,1,3,0,1,0,255.0638,NaN,100000,999,0,
101,1,4,2,220,0,288.6709,195.521,228.9629,0,0,0,1,0,0,0,288.6709,160.9548,1.4932,-127.7161,0,
101,1,4,2,221,1,165.2439,196.5692,108.2082,3,1,2,3,1,0,0,108.2082,214.2366,1.3263,106.0284,0,
101,1,4,2,222,1,48.3979,197.8389,288.2589,3,2,1,2,0,1,0,197.8389,NaN,100000,999,0,
101,1,4,2,223,1,109.8933,45.5568,136.9804,1,2,3,1,1,0,0,109.8933,82.3737,1.2013,-27.5196,10,
101,1,4,2,224,0,78.9946,289.6512,345.0236,0,0,0,2,0,0,0,289.6512,39.1842,0.9931,109.533,0,
101,1,4,2,225,0,165.1751,197.0274,76.2483,0,0,0,2,0,0,0,197.0274,45.2202,0.91658,-151.8071,0,
101,1,4,2,226,1,138.6715,347.4974,169.7165,1,3,2,1,1,0,0,138.6715,144.1027,0.77077,5.4312,30,
101,1,4,2,227,1,167.6721,77.1758,345.7885,1,2,3,2,0,1,0,77.1758,NaN,100000,999,0,
101,1,4,2,228,1,79.4084,198.6705,227.0322,3,2,1,1,0,0,1,79.4084,175.9197,0.85409,96.5113,0,
101,1,4,2,229,1,256.2999,78.9343,137.5579,1,3,2,1,1,0,0,256.2999,241.7519,1.1874,-14.548,20,
101,1,4,2,230,0,258.2465,78.8143,167.8784,0,0,0,2,0,0,0,78.8143,41.7903,1.1322,-37.0239,0,
101,1,4,2,231,1,315.1631,197.1487,45.1863,3,1,2,1,0,1,0,315.1631,NaN,100000,999,0,
101,1,4,2,232,1,166.0708,105.0193,259.4029,3,2,1,1,0,0,1,166.0708,170.5469,1.965,4.4761,30,
101,1,4,2,233,1,285.4293,17.6559,49.4428,2,1,3,2,1,0,0,17.6559,9.432,1.1457,-8.2239,30,
101,1,4,2,234,0,137.0614,166.811,48.907,0,0,0,2,0,0,0,166.811,20.0825,0.91657,-146.7286,0,
101,1,4,2,235,0,258.397,19.884,195.6273,0,0,0,1,0,0,0,258.397,236.3455,1.1944,-22.0515,10,
101,1,4,2,236,0,167.6627,229.6285,109.4954,0,0,0,2,0,0,0,229.6285,17.2757,1.0555,147.6472,0,
101,1,4,2,237,1,289.3028,79.6955,258.401,3,1,2,3,1,0,0,258.401,287.6949,1.2499,29.2939,10,
101,1,4,2,238,0,167.6572,228.169,345.0705,0,0,0,1,0,0,0,167.6572,214.565,1.0416,46.9077,0,
101,1,4,2,239,0,78.7617,259.4745,169.2092,0,0,0,1,0,0,0,78.7617,78.8327,1.4512,0.070995,40,
101,1,4,2,240,0,138.6643,105.5838,18.7302,0,0,0,2,0,0,0,105.5838,108.7492,1.6805,3.1653,30,
101,1,5,2,241,0,167.0559,316.1824,255.9753,0,0,0,2,0,0,0,316.1824,349.1534,1.9304,32.971,0,
101,1,5,2,242,1,225.5146,49.9844,196.7948,2,3,1,2,1,0,0,49.9844,45.502,0.95851,-4.4824,30,
101,1,5,2,243,1,77.9323,198.8902,258.6385,3,2,1,2,0,1,0,198.8902,NaN,100000,999,0,
101,1,5,2,244,1,228.7567,317.6118,347.4522,2,1,3,2,1,0,0,317.6118,352.7653,1.3124,35.1535,0,
101,1,5,2,245,1,16.2011,225.3515,286.5002,1,2,3,1,1,0,0,16.2011,28.7595,1.5137,12.5584,20,
101,1,5,2,246,1,166.4226,49.1528,229.0918,3,1,2,3,1,0,0,229.0918,297.421,0.8128,68.3292,0,
101,1,5,2,247,0,48.2004,108.9378,136.35,0,0,0,2,0,0,0,108.9378,149.3969,1.4717,40.4591,0,
101,1,5,2,248,1,135.4472,258.6564,229.5193,1,2,3,1,1,0,0,135.4472,96.876,0.93042,-38.5711,0,
101,1,5,2,249,0,139.9175,46.2417,348.0318,0,0,0,1,0,0,0,139.9175,139.1562,0.8676,-0.76125,40,
101,1,5,2,250,0,287.9163,196.3027,345.4241,0,0,0,2,0,0,0,196.3027,44.5017,1.0346,-151.8011,0,
101,1,5,2,251,1,199.6498,106.4098,345.8444,2,3,1,2,1,0,0,106.4098,34.0243,3.819,-72.3855,0,
101,1,5,2,252,1,169.1344,316.5048,346.9194,2,1,3,2,1,0,0,316.5048,344.1435,2.0067,27.6387,10,
101,1,5,2,253,1,195.6162,138.6794,225.7831,3,2,1,3,1,0,0,225.7831,213.4589,1.687,-12.3242,20,
101,1,5,2,254,1,105.6737,316.6189,199.7527,2,3,1,2,1,0,0,316.6189,344.6209,1.5969,28.002,10,
101,1,5,2,255,1,319.0859,286.8877,49.863,2,1,3,2,1,0,0,286.8877,312.1494,1.4582,25.2617,10,
101,1,5,2,256,0,169.9745,197.4529,47.5173,0,0,0,3,0,0,0,47.5173,29.3442,1.0695,-18.1731,20,
101,1,5,2,257,1,108.6293,256.6972,346.3634,2,3,1,1,0,0,1,108.6293,117.0618,1.1943,8.4325,30,
101,1,5,2,258,1,315.1454,285.681,18.4728,1,3,2,1,1,0,0,315.1454,310.5182,1.3401,-4.6272,30,
101,1,5,2,259,0,345.3735,195.9123,165.1584,0,0,0,2,0,0,0,195.9123,190.6277,2.972,-5.2846,30,
101,1,5,2,260,1,48.6624,345.8147,229.6054,2,1,3,2,1,0,0,345.8147,6.1352,1.5346,20.3204,20,
101,1,5,2,261,0,75.0066,49.9063,17.851,0,0,0,3,0,0,0,17.851,9.8948,1.0624,-7.9562,30,
101,1,5,2,262,1,108.7804,256.4412,78.0309,2,3,1,3,0,1,0,78.0309,NaN,100000,999,0,
101,1,5,2,263,0,136.1479,165.0346,318.8332,0,0,0,1,0,0,0,136.1479,132.9574,1.3193,-3.1906,30,
101,1,5,2,264,1,197.5948,19.1099,348.1851,3,1,2,1,0,1,0,197.5948,NaN,100000,999,0,
101,1,5,2,265,1,107.0495,196.8559,226.1343,3,2,1,1,0,0,1,107.0495,101.2986,1.4233,-5.7509,30,
101,1,5,2,266,0,168.9651,139.0778,48.7606,0,0,0,1,0,0,0,168.9651,149.7334,1.6179,-19.2317,20,
101,1,5,2,267,1,317.7818,139.8454,168.4456,1,3,2,1,1,0,0,317.7818,319.1945,3.0414,1.4127,40,
101,1,5,2,268,0,345.0331,197.9865,288.2959,0,0,0,2,0,0,0,197.9865,206.7751,1.9164,8.7886,30,
101,1,5,2,269,0,168.9406,229.348,288.9377,0,0,0,3,0,0,0,288.9377,293.0205,1.1665,4.0828,30,
101,1,5,2,270,1,165.9414,106.621,288.5802,2,1,3,2,1,0,0,106.621,99.8618,1.1179,-6.7592,30,
101,1,5,2,271,1,168.5983,256.5138,47.2951,3,2,1,3,1,0,0,47.2951,25.3084,1.5554,-21.9867,10,
101,1,5,2,272,1,17.1214,319.5277,287.0866,3,1,2,2,0,0,1,319.5277,325.742,1.9929,6.2144,30,
101,1,5,2,273,0,285.9294,16.4572,317.3083,0,0,0,2,0,0,0,16.4572,8.4448,1.5346,-8.0124,30,
101,1,5,2,274,1,135.8698,195.5877,105.8702,2,3,1,1,0,0,1,135.8698,325.6886,1.3054,-170.1812,0,
101,1,5,2,275,1,107.3868,259.4494,195.3254,1,2,3,3,0,0,1,195.3254,185.7391,1.2779,-9.5863,30,
101,1,5,2,276,1,136.9238,347.8132,168.1692,2,3,1,3,0,1,0,168.1692,NaN,100000,999,0,
101,1,5,2,277,1,227.7422,136.0392,108.9229,1,2,3,1,1,0,0,227.7422,224.2954,1.5415,-3.4468,30,
101,1,5,2,278,1,138.9978,348.9808,289.7704,3,2,1,3,1,0,0,289.7704,300.1515,0.99977,10.3811,30,
101,1,5,2,279,0,136.8617,167.0285,17.1941,0,0,0,2,0,0,0,167.0285,13.2392,1.3598,-153.7893,0,
101,1,5,2,280,0,318.5183,259.5948,138.3004,0,0,0,3,0,0,0,138.3004,124.9751,2.9511,-13.3253,20,
101,1,5,2,281,1,225.1476,257.3617,288.3922,3,1,2,3,1,0,0,288.3922,298.5261,1.1387,10.1338,30,
101,1,5,2,282,0,19.5042,105.6908,48.9704,0,0,0,2,0,0,0,105.6908,115.3219,1.5346,9.6311,30,
101,1,5,2,283,1,45.9366,77.7282,136.2756,1,3,2,1,1,0,0,45.9366,60.6468,1.1458,14.7102,20,
101,1,5,2,284,1,169.4306,45.747,257.1734,1,3,2,1,1,0,0,169.4306,126.6433,1.3193,-42.7873,0,
101,1,5,2,285,0,287.5569,16.0754,106.7305,0,0,0,2,0,0,0,16.0754,21.1845,1.9721,5.109,30,
101,1,5,2,286,1,287.3987,75.9933,316.1951,2,3,1,3,0,1,0,316.1951,NaN,100000,999,0,
101,1,5,2,287,1,259.6331,285.4745,76.8771,2,3,1,1,0,0,1,259.6331,268.4275,1.6873,8.7944,30,
101,1,5,2,288,0,197.3872,316.5277,47.5817,0,0,0,3,0,0,0,47.5817,21.7937,1.6037,-25.7879,10,
101,1,5,2,289,0,319.7979,108.851,79.3751,0,0,0,3,0,0,0,79.3751,70.868,2.5345,-8.5071,30,
101,1,5,2,290,1,16.3184,229.58,348.0752,3,2,1,3,1,0,0,348.0752,341.3439,1.4443,-6.7313,30,
101,1,5,2,291,1,347.7596,17.0191,198.7506,2,1,3,1,0,1,0,347.7596,NaN,100000,999,0,
101,1,5,2,292,1,229.2868,75.9901,315.778,2,1,3,2,1,0,0,75.9901,77.0838,1.2499,1.0937,40,
101,1,5,2,293,0,76.7418,17.4316,258.3976,0,0,0,3,0,0,0,258.3976,296.2026,1.2221,37.805,0,
101,1,5,2,294,0,139.9652,345.4822,196.5657,0,0,0,3,0,0,0,196.5657,199.4934,1.0969,2.9276,40,
101,1,5,2,295,1,258.5304,135.1951,198.0815,2,1,3,1,0,1,0,258.5304,NaN,100000,999,0,
101,1,5,2,296,0,79.9196,45.2887,106.9827,0,0,0,3,0,0,0,106.9827,64.1306,1.7151,-42.8522,0,
101,1,5,2,297,1,139.4131,317.1872,79.1748,2,1,3,3,0,0,1,79.1748,29.6392,2.2014,-49.5356,0,
101,1,5,2,298,0,169.0204,227.8133,108.7544,0,0,0,1,0,0,0,169.0204,153.3829,0.88223,-15.6374,20,
101,1,5,2,299,1,15.6194,315.9312,168.2325,1,2,3,1,1,0,0,15.6194,147.7152,0.87491,132.0958,0,
101,1,5,2,300,1,108.8763,47.9592,16.8809,1,2,3,3,0,0,1,16.8809,351.4524,1.0069,-25.4285,10,
101,1,6,2,301,0,46.9234,135.2004,227.9147,0,0,0,1,0,0,0,46.9234,57.5413,1.7915,10.6179,30,
101,1,6,2,302,0,195.7893,347.5433,258.0165,0,0,0,3,0,0,0,258.0165,263.4436,0.98601,5.4271,30,
101,1,6,2,303,0,16.8971,197.9642,135.3425,0,0,0,2,0,0,0,197.9642,196.9073,1.0276,-1.0569,40,
101,1,6,2,304,0,347.1749,287.7893,258.1939,0,0,0,1,0,0,0,347.1749,18.7639,2.347,31.5889,0,
101,1,6,2,305,1,16.4771,196.8306,76.7452,2,3,1,2,1,0,0,196.8306,203.0015,1.1041,6.1709,30,
101,1,6,2,306,1,317.1352,167.8886,349.4976,3,1,2,2,0,0,1,167.8886,185.4622,2.4303,17.5736,20,
101,1,6,2,307,0,349.4673,318.2654,15.2014,0,0,0,1,0,0,0,349.4673,350.3626,1.3887,0.89536,40,
101,1,6,2,308,1,348.6462,168.243,137.3733,2,1,3,2,1,0,0,168.243,162.0456,1.4578,-6.1974,30,
101,1,6,2,309,1,136.4477,45.0925,348.5075,2,1,3,2,1,0,0,45.0925,12.5108,1.2432,-32.5817,0,
101,1,6,2,310,1,315.7111,256.8779,168.9678,2,1,3,2,1,0,0,256.8779,38.4147,0.86798,141.5368,0,
101,1,6,2,311,1,169.758,196.7334,286.4866,1,3,2,1,1,0,0,169.758,209.192,1.2151,39.434,0,
101,1,6,2,312,1,259.5246,346.4085,138.0694,1,2,3,2,0,1,0,346.4085,NaN,100000,999,0,
101,1,6,2,313,0,225.0449,48.5914,257.2471,0,0,0,1,0,0,0,225.0449,227.8841,1.5971,2.8392,40,
101,1,6,2,314,1,109.9422,346.2555,196.5774,1,3,2,1,1,0,0,109.9422,125.9861,1.2989,16.0439,20,
101,1,6,2,315,0,46.3042,227.4654,109.2792,0,0,0,3,0,0,0,109.2792,316.41,1.1874,-152.8691,0,
101,1,6,2,316,0,257.3016,227.5784,76.36,0,0,0,3,0,0,0,76.36,260.7928,0.72179,-175.5671,0,
101,1,6,2,317,1,257.7944,16.1293,135.5226,1,2,3,2,0,1,0,16.1293,NaN,100000,999,0,
101,1,6,2,318,1,19.299,47.9853,288.2738,2,1,3,1,0,1,0,19.299,NaN,100000,999,0,
101,1,6,2,319,1,195.14,255.3342,79.6353,3,1,2,3,1,0,0,79.6353,43.0473,1.5901,-36.588,0,
101,1,6,2,320,1,15.1824,255.3184,106.6144,1,3,2,2,0,0,1,255.3184,241.8159,1.5623,-13.5025,20,
101,1,6,2,321,0,107.9897,225.1151,19.4971,0,0,0,1,0,0,0,107.9897,66.6233,1.0068,-41.3664,0,
101,1,6,2,322,0,197.2525,47.8892,285.3742,0,0,0,2,0,0,0,47.8892,30.4321,1.0902,-17.4571,20,
101,1,6,2,323,1,17.2564,316.2498,139.7772,2,3,1,2,1,0,0,316.2498,326.0793,1.229,9.8295,30,
101,1,6,2,324,0,17.2228,288.1376,347.6732,0,0,0,3,0,0,0,347.6732,342.3555,1.2429,-5.3177,30,
101,1,6,2,325,1,317.5363,165.5686,257.4522,3,1,2,3,1,0,0,257.4522,326.4697,0.84713,69.0175,0,
101,1,6,2,326,1,47.5541,317.8229,199.9686,2,1,3,2,1,0,0,317.8229,332.8015,1.3471,14.9786,20,
101,1,6,2,327,0,106.6799,75.7242,346.2244,0,0,0,2,0,0,0,75.7242,65.705,1.493,-10.0192,30,
101,1,6,2,328,1,169.2888,79.31,346.5665,1,3,2,3,0,1,0,346.5665,NaN,100000,999,0,
101,1,6,2,329,1,319.3634,106.4291,198.2842,3,1,2,3,1,0,0,198.2842,217.2947,1.2082,19.0104,20,
101,1,6,2,330,1,349.5954,197.0535,78.6618,3,1,2,1,0,1,0,349.5954,NaN,100000,999,0,
101,1,6,2,331,1,15.0076,347.81,287.7324,3,1,2,3,1,0,0,287.7324,234.2737,0.83341,-53.4587,0,
101,1,6,2,332,1,285.9061,227.1312,255.4908,1,3,2,1,1,0,0,285.9061,212.7263,1.1735,-73.1798,0,
101,1,6,2,333,1,345.6878,197.1204,228.8228,3,1,2,3,1,0,0,228.8228,223.3193,2.125,-5.5035,30,
101,1,6,2,334,1,165.8893,259.9342,75.085,2,1,3,1,0,1,0,165.8893,NaN,100000,999,0,
101,1,6,2,335,1,18.1545,289.4599,318.367,1,2,3,1,1,0,0,18.1545,14.78,2.6177,-3.3745,30,
101,1,6,2,336,1,227.6908,319.5507,166.7535,1,3,2,3,0,1,0,166.7535,NaN,100000,999,0,
101,1,6,2,337,0,256.578,109.9701,229.9195,0,0,0,1,0,0,0,256.578,233.0402,1.6874,-23.5378,10,
101,1,6,2,338,1,258.626,319.1718,285.0945,3,2,1,1,0,0,1,258.626,261.95,1.9026,3.324,30,
101,1,6,2,339,0,289.6574,136.8901,18.0884,0,0,0,1,0,0,0,289.6574,248.6131,0.90963,-41.0442,0,
101,1,6,2,340,1,107.9087,195.499,225.833,3,1,2,3,1,0,0,225.833,209.4578,1.0693,-16.3752,20,
101,1,6,2,341,0,19.4256,46.0482,167.4018,0,0,0,2,0,0,0,46.0482,12.2778,0.95827,-33.7704,0,
101,1,6,2,342,1,78.6958,106.2681,18.5963,1,2,3,2,0,1,0,106.2681,NaN,100000,999,0,
101,1,6,2,343,0,258.1371,347.3141,105.6472,0,0,0,3,0,0,0,105.6472,331.7025,0.882,-133.9447,0,
101,1,6,2,344,0,229.993,137.5676,346.9392,0,0,0,1,0,0,0,229.993,212.1842,1.0698,-17.8088,20,
101,1,6,2,345,1,199.8122,16.5687,48.9854,2,1,3,2,1,0,0,16.5687,32.3838,0.80548,15.8151,20,
101,1,6,2,346,1,49.5963,169.9447,79.663,2,1,3,3,0,0,1,79.663,348.9631,0.78465,-90.6999,0,
101,1,6,2,347,1,195.941,315.5034,346.4328,2,1,3,2,1,0,0,315.5034,359.6866,1.2295,44.1832,0,
101,1,6,2,348,1,106.7758,228.1557,19.3227,1,3,2,1,1,0,0,106.7758,138.4212,1.9234,31.6455,0,
101,1,6,2,349,1,16.1481,136.7947,46.8158,3,1,2,3,1,0,0,46.8158,18.6947,1.3262,-28.1211,10,
101,1,6,2,350,0,346.4404,166.8831,225.7325,0,0,0,1,0,0,0,346.4404,165.2414,0.81284,178.801,0,
101,1,6,2,351,1,255.7971,226.3939,18.2247,3,2,1,1,0,0,1,255.7971,238.9907,0.97213,-16.8064,20,
101,1,6,2,352,0,75.5483,347.8292,256.3717,0,0,0,3,0,0,0,256.3717,248.426,1.104,-7.9457,30,
101,1,6,2,353,1,288.1388,77.2337,19.0555,1,3,2,1,1,0,0,288.1388,259.4447,1.5762,-28.6941,10,
101,1,6,2,354,0,196.9487,15.7521,166.6685,0,0,0,3,0,0,0,166.6685,336.2058,1.18,169.5373,0,
101,1,6,2,355,0,106.9478,257.4507,79.4345,0,0,0,1,0,0,0,106.9478,232.6715,1.236,125.7236,0,
101,1,6,2,356,1,319.31,345.6282,258.2279,3,1,2,3,1,0,0,258.2279,251.4713,1.7636,-6.7566,30,
101,1,6,2,357,1,138.9567,288.2831,107.7184,2,3,1,2,1,0,0,288.2831,359.2627,2.84,70.9796,0,
101,1,6,2,358,0,315.156,289.1379,16.3213,0,0,0,3,0,0,0,16.3213,351.6101,1.0485,-24.7112,10,
101,1,6,2,359,0,258.0154,135.9201,225.4373,0,0,0,1,0,0,0,258.0154,252.0524,0.91655,-5.963,30,
101,1,6,2,360,1,139.5235,198.8365,47.8133,2,1,3,2,1,0,0,198.8365,26.1937,1.854,-172.6428,0,
101,1,7,1,361,1,137.7436,195.0777,75.4734,2,1,3,2,1,0,0,195.0777,203.887,1.8401,8.8093,30,
101,1,7,1,362,1,256.7246,198.4634,348.583,1,2,3,1,1,0,0,256.7246,233.7072,0.93742,-23.0174,10,
101,1,7,1,363,1,135.1638,79.2181,258.8515,2,1,3,2,1,0,0,79.2181,100.163,2.2077,20.9449,20,
101,1,7,1,364,1,318.2542,229.9111,195.9692,1,2,3,2,0,1,0,229.9111,19.7146,1.2846,149.8035,0,
101,1,7,1,365,1,108.4551,288.2361,228.1172,3,1,2,3,1,0,0,228.1172,243.1153,1.9303,14.9981,20,
101,1,7,1,366,0,346.1287,288.3308,49.3567,0,0,0,1,0,0,0,346.1287,319.7405,1.1943,-26.3882,10,
101,1,7,1,367,1,228.7525,46.6696,168.1642,3,2,1,3,1,0,0,168.1642,1.0972,1.9373,-167.067,0,
101,1,7,1,368,1,226.3755,139.1398,258.9639,1,2,3,3,0,0,1,258.9639,253.0834,1.1666,-5.8805,30,
101,1,7,1,369,1,79.0965,319.6324,17.5706,3,1,2,2,0,0,1,319.6324,159.3123,1.5415,-160.32,0,
101,1,7,1,370,1,319.6235,15.2778,76.9202,2,1,3,1,0,1,0,319.6235,232.4021,1.0902,-87.2214,0,
101,1,7,1,371,0,319.6585,285.5445,48.2585,0,0,0,1,0,0,0,319.6585,301.6279,1.111,-18.0306,20,
101,1,7,1,372,0,106.2626,258.2717,15.3005,0,0,0,3,0,0,0,15.3005,37.6601,1.6248,22.3596,10,
101,1,7,1,373,0,49.0672,258.9382,345.6216,0,0,0,2,0,0,0,258.9382,251.4779,1.9302,-7.4603,30,
101,1,7,1,374,1,166.1154,197.5488,18.9387,3,2,1,1,0,0,1,166.1154,163.1084,1.0555,-3.007,30,
101,1,7,1,375,0,135.6449,196.0742,226.4641,0,0,0,1,0,0,0,135.6449,163.3842,1.2293,27.7394,10,
101,1,7,1,376,1,258.7972,46.9971,227.8371,3,2,1,1,0,0,1,258.7972,153.9945,0.94423,-104.8026,0,
101,1,7,1,377,1,19.3937,136.9647,106.2132,3,1,2,3,1,0,0,106.2132,66.2274,1.6597,-39.9858,0,
101,1,7,1,378,1,198.1299,16.6345,346.5555,1,3,2,2,0,0,1,16.6345,15.6977,1.4651,-0.93685,40,
101,1,7,1,379,0,255.9533,317.2465,78.8433,0,0,0,2,0,0,0,317.2465,15.8341,1.5207,58.5876,0,
101,1,7,1,380,1,106.7368,288.8994,198.5417,1,3,2,3,0,1,0,198.5417,359.6814,1.7221,161.1397,0,
101,1,7,1,381,1,226.6913,289.8702,169.7739,1,3,2,1,1,0,0,226.6913,217.5906,2.1178,-9.1007,30,
101,1,7,1,382,1,75.0635,45.6611,226.9403,1,3,2,1,1,0,0,75.0635,65.7673,1.604,-9.2962,30,
101,1,7,1,383,0,195.7207,48.1759,349.0121,0,0,0,2,0,0,0,48.1759,29.7751,1.2845,-18.4008,20,
101,1,7,1,384,1,135.4763,286.2294,199.6733,3,1,2,2,0,0,1,286.2294,323.6547,1.6526,37.4253,0,
101,1,7,1,385,0,107.2227,346.6329,286.4365,0,0,0,1,0,0,0,107.2227,118.7475,0.94435,11.5248,30,
101,1,7,1,386,0,167.3073,257.9357,47.388,0,0,0,3,0,0,0,47.388,35.8885,3.8053,-11.4995,30,
101,1,7,1,387,0,105.1816,45.943,347.8877,0,0,0,1,0,0,0,105.1816,119.8339,1.2568,14.6523,20,
101,1,7,1,388,0,197.7527,139.9306,168.4489,0,0,0,2,0,0,0,139.9306,171.6576,1.4026,31.727,0,
101,1,7,1,389,1,106.463,49.1621,137.8526,2,3,1,2,1,0,0,49.1621,34.5517,1.3748,-14.6104,20,
101,1,7,1,390,0,18.0356,289.7875,76.6533,0,0,0,1,0,0,0,18.0356,30.119,1.3332,12.0835,20,
101,1,7,1,391,1,45.3576,315.0784,289.8684,3,1,2,3,1,0,0,289.8684,1.8377,0.81251,71.9693,0,
101,1,7,1,392,1,78.5901,105.9445,317.1697,3,1,2,3,1,0,0,317.1697,336.9295,0.95821,19.7598,20,
101,1,7,1,393,1,319.7139,18.3713,226.9283,2,3,1,2,1,0,0,18.3713,160.1528,1.9164,141.7815,0,
101,1,7,1,394,1,196.9913,225.6865,319.7638,3,2,1,3,1,0,0,319.7638,304.8993,1.4443,-14.8645,20,
101,1,7,1,395,0,75.4069,138.9374,255.872,0,0,0,1,0,0,0,75.4069,101.9914,1.6457,26.5845,10,
101,1,7,1,396,0,347.3247,229.1204,79.3594,0,0,0,3,0,0,0,79.3594,49.1853,1.5207,-30.1741,0,
101,1,7,1,397,0,199.4692,169.205,48.4164,0,0,0,1,0,0,0,199.4692,212.8217,1.0557,13.3525,20,
101,1,7,1,398,1,106.0224,15.3143,48.1119,3,1,2,3,1,0,0,48.1119,27.6377,1.2013,-20.4742,20,
101,1,7,1,399,1,347.7221,289.2307,45.2035,1,3,2,1,1,0,0,347.7221,331.5914,1.604,-16.1306,20,
101,1,7,1,400,1,288.0459,259.8347,198.8666,1,3,2,1,1,0,0,288.0459,305.2949,1.0905,17.249,20,
101,1,7,1,401,0,138.5923,169.9766,75.4185,0,0,0,1,0,0,0,138.5923,321.1839,1.5554,-177.4084,0,
101,1,7,1,402,1,138.4918,47.2984,315.7883,3,1,2,3,1,0,0,315.7883,313.5765,1.0139,-2.2117,40,
101,1,7,1,403,1,318.6274,135.6952,168.1628,3,1,2,1,0,1,0,318.6274,143.8624,1.5276,-174.765,0,
101,1,7,1,404,1,198.2711,316.0916,345.5957,3,1,2,3,1,0,0,345.5957,336.5676,0.8888,-9.028,30,
101,1,7,1,405,1,19.5455,197.2517,168.7432,1,3,2,3,0,1,0,168.7432,342.0999,0.97185,173.3567,0,
101,1,7,1,406,0,196.9978,48.2766,317.8342,0,0,0,3,0,0,0,317.8342,278.2985,1.3332,-39.5357,0,
101,1,7,1,407,1,18.4428,258.0195,106.9348,2,3,1,3,0,1,0,106.9348,98.0317,1.6873,-8.9031,30,
101,1,7,1,408,0,18.089,137.9711,318.3294,0,0,0,3,0,0,0,318.3294,323.078,0.96505,4.7486,30,
101,1,7,1,409,0,285.4329,319.6342,15.7424,0,0,0,1,0,0,0,285.4329,311.1052,2.0897,25.6723,10,
101,1,7,1,410,0,167.2618,137.6668,287.6333,0,0,0,2,0,0,0,137.6668,112.9047,1.5832,-24.7621,10,
101,1,7,1,411,1,257.6176,76.6841,136.6619,3,1,2,3,1,0,0,136.6619,136.1803,1.1665,-0.48155,40,
101,1,7,1,412,1,318.6127,255.6712,169.2655,2,3,1,2,1,0,0,255.6712,97.6302,0.7916,-158.041,0,
101,1,7,1,413,1,195.6399,167.3218,78.713,1,3,2,1,1,0,0,195.6399,210.303,1.1596,14.6631,20,
101,1,7,1,414,0,255.0215,348.2625,136.8484,0,0,0,2,0,0,0,348.2625,144.8332,1.0276,156.5707,0,
101,1,7,1,415,0,169.2599,195.5886,108.2863,0,0,0,3,0,0,0,108.2863,101.9657,2.6179,-6.3206,30,
101,1,7,1,416,0,108.0519,256.2399,137.5898,0,0,0,1,0,0,0,108.0519,103.314,1.5554,-4.7379,30,
101,1,7,1,417,1,315.776,79.9704,137.2512,1,2,3,1,1,0,0,315.776,67.1485,3.7913,111.3725,0,
101,1,7,1,418,1,109.5576,45.6649,285.2108,2,1,3,3,0,0,1,285.2108,307.549,1.0482,22.3381,10,
101,1,7,1,419,0,285.9982,227.6508,348.1368,0,0,0,1,0,0,0,285.9982,279.9985,1.3888,-5.9997,30,
101,1,7,1,420,1,285.1161,195.8806,349.3046,2,3,1,2,1,0,0,195.8806,201.3962,1.6665,5.5156,30,
101,1,8,1,421,1,139.1592,226.9724,75.4832,2,3,1,2,1,0,0,226.9724,209.0838,2.0414,-17.8886,20,
101,1,8,1,422,1,258.0006,19.9983,285.6459,3,1,2,3,1,0,0,285.6459,301.8608,1.5345,16.2149,20,
101,1,8,1,423,0,347.863,79.9688,136.8148,0,0,0,2,0,0,0,79.9688,85.8433,0.99993,5.8745,30,
101,1,8,1,424,1,138.8927,289.0539,347.4898,3,2,1,3,1,0,0,347.4898,332.6715,1.5068,-14.8182,20,
101,1,8,1,425,0,139.122,45.8653,229.3182,0,0,0,3,0,0,0,229.3182,238.0269,2.0275,8.7087,30,
101,1,8,1,426,1,138.0311,78.9619,49.1808,2,1,3,2,1,0,0,78.9619,53.6734,1.3262,-25.2885,10,
101,1,8,1,427,0,46.1867,195.6983,256.1037,0,0,0,2,0,0,0,195.6983,187.1656,1.8053,-8.5327,30,
101,1,8,1,428,1,346.4768,289.5354,227.4644,3,2,1,3,1,0,0,227.4644,227.9287,1.0554,0.46425,40,
101,1,8,1,429,1,47.187,79.2999,15.0445,1,3,2,1,1,0,0,47.187,116.3996,1.6318,69.2126,0,
101,1,8,1,430,0,79.2645,348.4328,109.7906,0,0,0,2,0,0,0,348.4328,18.4341,1.3746,30.0014,0,
101,1,8,1,431,1,166.9384,345.2837,198.4479,3,2,1,3,1,0,0,198.4479,192.3511,1.6318,-6.0968,30,
101,1,8,1,432,0,46.1005,196.179,169.0506,0,0,0,3,0,0,0,169.0506,349.6977,2.1178,-179.3529,0,
101,1,8,1,433,0,285.1488,259.3335,319.4721,0,0,0,2,0,0,0,259.3335,289.8862,2.1039,30.5526,0,
101,1,8,1,434,0,315.0558,256.1726,168.5349,0,0,0,1,0,0,0,315.0558,302.1294,1.6597,-12.9265,20,
101,1,8,1,435,1,138.3282,106.1507,49.0244,2,3,1,2,1,0,0,106.1507,103.4047,2.2498,-2.746,40,
101,1,8,1,436,0,167.1549,138.8245,349.9823,0,0,0,3,0,0,0,349.9823,341.9155,1.8054,-8.0668,30,
101,1,8,1,437,0,107.9765,77.5306,228.882,0,0,0,2,0,0,0,77.5306,75.5294,1.4929,-2.0011,40,
101,1,8,1,438,1,165.7078,228.0405,49.6531,3,2,1,1,0,0,1,165.7078,163.9809,1.2568,-1.7269,40,
101,1,8,1,439,1,348.1345,49.685,316.5997,2,1,3,3,0,0,1,316.5997,333.3504,1.0555,16.7507,20,
101,1,8,1,440,1,75.7592,348.6651,45.1985,2,1,3,2,1,0,0,348.6651,16.2456,1.6732,27.5805,10,
101,1,8,1,441,1,166.6833,319.4168,46.6683,3,2,1,3,1,0,0,46.6683,1.9987,1.3398,-44.6696,0,
101,1,8,1,442,1,78.6986,197.224,109.252,1,2,3,2,0,1,0,197.224,186.2592,2.4791,-10.9648,30,
101,1,8,1,443,1,227.4811,166.4383,105.9151,1,3,2,1,1,0,0,227.4811,225.2009,1.6109,-2.2801,40,
101,1,8,1,444,0,226.7599,195.5008,288.965,0,0,0,1,0,0,0,226.7599,221.6068,1.5205,-5.1532,30,
101,1,8,1,445,1,228.4323,319.7786,106.5395,1,2,3,1,1,0,0,228.4323,231.3517,1.5068,2.9194,40,
101,1,8,1,446,0,79.7326,317.4622,348.7411,0,0,0,1,0,0,0,79.7326,112.657,2.3124,32.9244,0,
101,1,8,1,447,0,45.9115,197.797,18.1324,0,0,0,3,0,0,0,18.1324,15.8075,1.6596,-2.3249,40,
101,1,8,1,448,1,18.6621,168.1551,287.341,3,2,1,3,1,0,0,287.341,344.236,1.8609,56.895,0,
101,1,8,1,449,1,136.0884,285.0426,346.5031,3,1,2,3,1,0,0,346.5031,332.4863,1.2429,-14.0169,20,
101,1,8,1,450,0,315.1533,349.0435,225.2357,0,0,0,2,0,0,0,349.0435,345.8048,1.6456,-3.2387,30,
101,1,8,1,451,1,138.6936,315.0693,168.3956,2,3,1,3,0,1,0,168.3956,341.4434,1.3749,173.0478,0,
101,1,8,1,452,1,46.0342,105.1868,78.3168,3,2,1,3,1,0,0,78.3168,77.9493,1.9304,-0.36755,40,
101,1,8,1,453,0,165.0947,45.9217,15.1337,0,0,0,2,0,0,0,45.9217,31.3897,1.1736,-14.532,20,
101,1,8,1,454,0,348.5217,318.8731,289.1133,0,0,0,3,0,0,0,289.1133,323.1854,0.95107,34.0721,0,
101,1,8,1,455,1,139.6704,47.9709,317.9655,2,1,3,2,1,0,0,47.9709,33.6155,1.1387,-14.3554,20,
101,1,8,1,456,1,286.0016,45.0729,168.8158,2,3,1,2,1,0,0,45.0729,34.0468,0.9582,-11.0262,30,
101,1,8,1,457,1,195.2941,256.1198,15.8399,3,1,2,3,1,0,0,15.8399,344.4861,0.87526,-31.3538,0,
101,1,8,1,458,1,138.5184,169.1855,258.6365,1,2,3,1,1,0,0,138.5184,211.4479,0.95824,72.9296,0,
101,1,8,1,459,1,19.902,108.5641,259.1282,3,2,1,2,0,1,0,108.5641,58.4878,0.85409,-50.0764,0,
101,1,8,1,460,1,108.5872,226.0126,318.2188,2,1,3,2,1,0,0,226.0126,38.0151,1.4098,172.0025,0,
101,1,8,1,461,0,19.6597,105.4666,288.6939,0,0,0,3,0,0,0,288.6939,349.1789,1.3197,60.4851,0,
101,1,8,1,462,1,109.9663,18.7877,196.3753,3,1,2,2,0,0,1,18.7877,31.1105,1.4096,12.3228,20,
101,1,8,1,463,0,139.1878,168.7421,197.9193,0,0,0,3,0,0,0,197.9193,203.9031,2.1942,5.9838,30,
101,1,8,1,464,0,136.7104,259.36,16.3401,0,0,0,3,0,0,0,16.3401,333.499,1.0064,-42.8412,0,
101,1,8,1,465,1,136.4382,79.6219,316.4924,3,2,1,2,0,1,0,79.6219,73.4725,1.0275,-6.1494,30,
101,1,8,1,466,1,196.6333,136.0981,167.5911,3,1,2,3,1,0,0,167.5911,325.2768,0.95106,157.6857,0,
101,1,8,1,467,1,226.3809,318.4812,259.4068,3,2,1,3,1,0,0,259.4068,349.6972,1.1041,90.2904,0,
101,1,8,1,468,0,18.9916,169.3163,138.9898,0,0,0,2,0,0,0,169.3163,175.9637,4.0273,6.6474,30,
101,1,8,1,469,1,15.3526,75.3001,108.3079,3,1,2,3,1,0,0,108.3079,72.362,1.486,-35.9459,0,
101,1,8,1,470,0,46.2786,346.8916,169.9687,0,0,0,1,0,0,0,46.2786,200.2435,1.5345,153.9649,0,
101,1,8,1,471,1,345.2622,106.6171,78.9984,3,1,2,3,1,0,0,78.9984,350.7398,1.6873,-88.2586,0,
101,1,8,1,472,0,348.2674,166.2214,78.7896,0,0,0,3,0,0,0,78.7896,220.4518,1.2568,141.6622,0,
101,1,8,1,473,1,106.559,257.9588,76.8881,1,2,3,2,0,1,0,257.9588,275.7129,1.8188,17.7541,20,
101,1,8,1,474,1,317.6116,229.0412,257.2379,2,1,3,3,0,0,1,257.2379,255.3092,1.0207,-1.9287,40,
101,1,8,1,475,1,287.5106,197.8513,19.2574,1,3,2,1,1,0,0,287.5106,258.5019,1.4998,-29.0087,10,
101,1,8,1,476,0,227.7234,199.2796,318.2134,0,0,0,1,0,0,0,227.7234,225.5851,1.8469,-2.1382,40,
101,1,8,1,477,1,76.0947,286.1864,255.0432,1,3,2,3,0,1,0,255.0432,257.867,1.6526,2.8239,40,
101,1,8,1,478,1,317.4562,198.8708,225.7391,2,3,1,3,0,1,0,225.7391,235.1036,0.78459,9.3646,30,
101,1,8,1,479,1,46.7157,195.3171,168.0624,1,3,2,2,0,0,1,195.3171,169.6219,1.6456,-25.6952,10,
101,1,8,1,480,1,285.5423,79.2688,319.5543,3,1,2,3,1,0,0,319.5543,311.6446,1.9238,-7.9096,30,
