Subject,Session,Block,Condition,Trial,whetherCued,leftStim,rightStim,midStim,remCueLoc,fogCueLoc,neutralCueLoc,probeCueLoc,probeRem,probeForget,probeNeutral,Target,Estimate,RT,Error,Points
117,1,1,1,1,0,136.1214,256.3453,18.3652,0,0,0,2,0,0,0,256.3453,249.388,1.9916,-6.9572,30,
117,1,1,1,2,0,289.4795,225.4954,105.2208,0,0,0,1,0,0,0,289.4795,275.2257,2.1668,-14.2538,20,
117,1,1,1,3,1,347.5064,287.1586,109.9878,2,1,3,2,1,0,0,287.1586,239.3704,1.2502,-47.7882,0,
117,1,1,1,4,0,348.6529,108.2324,289.1658,0,0,0,1,0,0,0,348.6529,149.7538,1.5501,161.1009,0,
117,1,1,1,5,1,107.4617,228.4737,289.8637,3,2,1,3,1,0,0,289.8637,300.8591,1.708,10.9954,30,
117,1,1,1,6,1,138.3022,255.2378,226.7439,2,3,1,1,0,0,1,138.3022,159.5432,2.242,21.241,10,
117,1,1,1,7,1,197.5189,257.448,49.3852,3,1,2,3,1,0,0,49.3852,43.3215,1.0835,-6.0637,30,
117,1,1,1,8,1,105.0963,165.4194,19.874,1,2,3,1,1,0,0,105.0963,146.9805,1.2418,41.8842,0,
117,1,1,1,9,0,349.6502,286.9951,105.237,0,0,0,1,0,0,0,349.6502,139.7383,2.2252,150.0881,0,
117,1,1,1,10,0,259.389,197.9122,285.3534,0,0,0,1,0,0,0,259.389,255.5936,2.3918,-3.7954,30,
117,1,1,1,11,1,317.5194,78.234,226.5387,2,1,3,2,1,0,0,78.234,62.022,0.90837,-16.2121,20,
117,1,1,1,12,1,226.4331,199.0041,19.4806,2,1,3,2,1,0,0,199.0041,194.0779,1.2085,-4.9262,30,
117,1,1,1,13,1,199.1477,319.2454,226.8627,1,2,3,1,1,0,0,199.1477,182.8214,1.3,-16.3263,20,
117,1,1,1,14,1,198.7837,137.0852,229.8589,1,2,3,2,0,1,0,137.0852,349.0865,1.7168,-147.9987,0,
117,1,1,1,15,1,317.252,136.0284,79.4983,1,2,3,3,0,0,1,79.4983,128.3044,1.6752,48.8062,0,
117,1,1,1,16,0,166.9501,227.4895,288.474,0,0,0,1,0,0,0,166.9501,16.4398,3.4502,-150.5103,0,
117,1,1,1,17,0,255.5852,109.0734,346.6243,0,0,0,3,0,0,0,346.6243,34.361,2.2251,47.7367,0,
117,1,1,1,18,1,19.1594,45.6717,75.3023,2,3,1,2,1,0,0,45.6717,148.9368,1.3335,103.2651,0,
117,1,1,1,19,1,139.9843,17.7677,197.5773,1,2,3,1,1,0,0,139.9843,136.0863,1.7501,-3.8979,30,
117,1,1,1,20,1,169.6556,105.9539,16.2929,1,2,3,2,0,1,0,105.9539,139.6453,1.9252,33.6914,0,
117,1,1,1,21,0,198.6008,256.7345,227.585,0,0,0,1,0,0,0,198.6008,209.5033,2.1668,10.9024,30,
117,1,1,1,22,0,47.1514,228.4688,289.7261,0,0,0,2,0,0,0,228.4688,89.5503,1.5835,-138.9185,0,
117,1,1,1,23,0,288.3452,197.5011,346.09,0,0,0,1,0,0,0,288.3452,205.3764,1.6919,-82.9688,0,
117,1,1,1,24,1,229.3193,135.4885,169.5403,3,2,1,1,0,0,1,229.3193,212.3093,1.7917,-17.0101,20,
117,1,1,1,25,1,137.5392,347.928,18.8144,1,2,3,1,1,0,0,137.5392,176.0291,2.2752,38.4898,0,
117,1,1,1,26,0,17.7694,108.4003,196.8359,0,0,0,2,0,0,0,108.4003,120.9498,0.96673,12.5495,20,
117,1,1,1,27,1,135.7013,16.3007,195.4341,3,2,1,3,1,0,0,195.4341,181.6436,1.5751,-13.7905,20,
117,1,1,1,28,1,346.1034,285.0065,135.9459,1,2,3,2,0,1,0,285.0065,164.8771,1.7001,-120.1294,0,
117,1,1,1,29,0,105.3418,17.1816,75.8693,0,0,0,1,0,0,0,105.3418,185.4338,1.8752,80.092,0,
117,1,1,1,30,1,166.1401,16.8543,319.4546,2,3,1,2,1,0,0,16.8543,7.5272,2.1836,-9.3272,30,
117,1,1,1,31,1,347.6621,78.5825,225.8965,2,3,1,1,0,0,1,347.6621,179.7956,1.2167,-167.8665,0,
117,1,1,1,32,1,169.6783,319.0936,48.6413,1,3,2,1,1,0,0,169.6783,183.8065,1.2168,14.1282,20,
117,1,1,1,33,1,108.812,17.8803,78.7383,3,1,2,3,1,0,0,78.7383,260.9232,1.8002,-177.8151,0,
117,1,1,1,34,1,347.6614,136.397,49.7312,2,3,1,2,1,0,0,136.397,143.5194,1.0584,7.1224,30,
117,1,1,1,35,0,78.6346,196.8692,47.9079,0,0,0,2,0,0,0,196.8692,241.4448,2.5335,44.5756,0,
117,1,1,1,36,0,45.7597,16.9855,196.8736,0,0,0,3,0,0,0,196.8736,347.4985,1.325,150.6249,0,
117,1,1,1,37,1,138.2116,316.1063,79.1853,2,1,3,2,1,0,0,316.1063,347.4557,2.5668,31.3494,0,
117,1,1,1,38,0,319.2929,289.5553,168.4982,0,0,0,3,0,0,0,168.4982,146.6976,2.4668,-21.8006,10,
117,1,1,1,39,1,287.6468,199.1499,49.2938,3,1,2,2,0,0,1,199.1499,163.0457,2.6835,-36.1042,0,
117,1,1,1,40,1,169.2518,139.5582,198.1964,1,3,2,1,1,0,0,169.2518,6.3733,1.4585,-162.8785,0,
117,1,1,1,41,1,169.1329,48.3844,286.038,3,2,1,3,1,0,0,286.038,289.5432,1.4167,3.5052,30,
117,1,1,1,42,1,287.2569,316.9132,48.9482,2,1,3,2,1,0,0,316.9132,329.2122,1.0751,12.299,20,
117,1,1,1,43,0,228.7938,349.9761,315.9329,0,0,0,3,0,0,0,315.9329,314.3031,1.4001,-1.6298,40,
117,1,1,1,44,1,285.9688,47.1618,258.7458,2,1,3,2,1,0,0,47.1618,48.7862,1.4168,1.6244,40,
117,1,1,1,45,0,19.6749,137.3974,346.159,0,0,0,2,0,0,0,137.3974,50.7351,1.1834,-86.6623,0,
117,1,1,1,46,1,287.6548,259.506,317.7028,2,1,3,2,1,0,0,259.506,279.7283,1.7751,20.2222,20,
117,1,1,1,47,0,105.9911,165.9754,316.6342,0,0,0,3,0,0,0,316.6342,313.1901,1.0918,-3.4441,30,
117,1,1,1,48,1,109.0699,259.4922,77.1462,3,1,2,1,0,1,0,109.0699,268.4367,0.88336,159.3668,0,
117,1,1,1,49,1,315.4649,347.3174,285.0467,1,2,3,1,1,0,0,315.4649,87.105,1.5001,131.64,0,
117,1,1,1,50,0,77.1828,225.2461,105.2482,0,0,0,1,0,0,0,77.1828,275.6503,2.3336,-161.5325,0,
117,1,1,1,51,1,17.3062,228.1966,259.5867,2,3,1,2,1,0,0,228.1966,179.3839,4.2168,-48.8127,0,
117,1,1,1,52,1,19.9049,195.6352,286.1612,1,3,2,1,1,0,0,19.9049,210.5953,1.4335,-169.3096,0,
117,1,1,1,53,0,19.2845,75.217,318.4581,0,0,0,2,0,0,0,75.217,50.6013,1.0667,-24.6156,10,
117,1,1,1,54,1,79.095,348.1246,228.6928,3,2,1,3,1,0,0,228.6928,297.6236,1.75,68.9308,0,
117,1,1,1,55,1,49.4771,227.9126,257.9137,1,3,2,1,1,0,0,49.4771,249.5609,1.6169,-159.9162,0,
117,1,1,1,56,1,47.0319,136.931,228.049,2,1,3,3,0,0,1,228.049,299.387,1.9917,71.338,0,
117,1,1,1,57,1,77.6151,16.6265,49.1592,2,3,1,2,1,0,0,16.6265,57.0007,0.9334,40.3742,0,
117,1,1,1,58,0,137.6428,345.2572,78.7844,0,0,0,2,0,0,0,345.2572,65.8372,2.6085,80.58,0,
117,1,1,1,59,0,168.7425,317.7165,226.6907,0,0,0,2,0,0,0,317.7165,56.3358,1.9501,98.6193,0,
117,1,1,1,60,1,315.1258,197.0721,138.657,2,1,3,3,0,0,1,138.657,231.7518,3.1418,93.0947,0,
117,1,2,1,61,0,315.8145,169.192,195.8378,0,0,0,3,0,0,0,195.8378,300.0046,1.0083,104.1668,0,
117,1,2,1,62,0,109.7017,135.0292,228.0515,0,0,0,2,0,0,0,135.0292,64.4645,1.6501,-70.5647,0,
117,1,2,1,63,1,256.4523,47.0128,289.3103,1,3,2,3,0,1,0,289.3103,293.2203,1.4419,3.91,30,
117,1,2,1,64,1,319.2054,76.7725,167.1503,1,3,2,2,0,0,1,76.7725,62.0142,1.575,-14.7584,20,
117,1,2,1,65,1,289.8173,135.4295,167.5025,3,2,1,3,1,0,0,167.5025,169.2361,1.3751,1.7337,40,
117,1,2,1,66,0,46.5193,197.4165,346.6891,0,0,0,1,0,0,0,46.5193,39.482,1.5251,-7.0372,30,
117,1,2,1,67,0,79.9262,107.7974,169.668,0,0,0,2,0,0,0,107.7974,80.2109,1.2168,-27.5865,10,
117,1,2,1,68,1,135.5422,165.1806,228.0905,2,1,3,2,1,0,0,165.1806,141.0326,1.3667,-24.1479,10,
117,1,2,1,69,0,259.4502,346.651,166.1485,0,0,0,1,0,0,0,259.4502,177.3625,0.99169,-82.0877,0,
117,1,2,1,70,0,135.5697,19.8928,79.243,0,0,0,3,0,0,0,79.243,60.8775,1.6334,-18.3655,20,
117,1,2,1,71,0,285.5402,17.2994,137.2544,0,0,0,3,0,0,0,137.2544,290.7349,0.78334,153.4805,0,
117,1,2,1,72,1,138.7045,347.534,165.9996,2,3,1,2,1,0,0,347.534,155.0208,1.5417,167.4868,0,
117,1,2,1,73,1,169.3879,345.0718,46.4715,1,2,3,1,1,0,0,169.3879,176.8266,1.2501,7.4387,30,
117,1,2,1,74,1,227.7164,78.5126,19.7822,2,1,3,2,1,0,0,78.5126,135.9971,1.2334,57.4845,0,
117,1,2,1,75,0,78.8751,319.5709,48.9128,0,0,0,2,0,0,0,319.5709,315.1348,2.2585,-4.4361,30,
117,1,2,1,76,0,48.4957,168.9813,137.2079,0,0,0,3,0,0,0,137.2079,287.5824,1.9668,150.3745,0,
117,1,2,1,77,0,315.7287,287.9252,345.3668,0,0,0,3,0,0,0,345.3668,310.234,1.7335,-35.1328,0,
117,1,2,1,78,0,286.8252,226.5457,315.6046,0,0,0,1,0,0,0,286.8252,263.81,1.8669,-23.0152,10,
117,1,2,1,79,1,256.6999,319.2336,46.2303,1,3,2,1,1,0,0,256.6999,181.9525,1.3251,-74.7474,0,
117,1,2,1,80,1,135.68,78.9445,105.462,2,1,3,1,0,1,0,135.68,262.8286,2.2751,127.1486,0,
117,1,2,1,81,1,75.0988,319.8215,349.8519,2,3,1,2,1,0,0,319.8215,61.215,1.7501,101.3936,0,
117,1,2,1,82,0,19.6916,226.2771,107.6658,0,0,0,2,0,0,0,226.2771,240.897,2.7668,14.6199,20,
117,1,2,1,83,0,138.9798,226.1669,78.0042,0,0,0,2,0,0,0,226.1669,232.6535,1.6,6.4866,30,
117,1,2,1,84,0,346.4868,16.9821,317.1038,0,0,0,3,0,0,0,317.1038,316.579,1.2918,-0.52474,40,
117,1,2,1,85,1,317.7541,79.3545,195.2113,1,2,3,2,0,1,0,79.3545,57.5829,1.0585,-21.7717,10,
117,1,2,1,86,1,47.5997,169.9459,257.4496,3,2,1,1,0,0,1,47.5997,159.5255,2.7751,111.9258,0,
117,1,2,1,87,1,79.0846,195.9474,105.6185,1,2,3,1,1,0,0,79.0846,233.5372,0.84173,154.4526,0,
117,1,2,1,88,1,76.6599,319.1987,286.8586,3,2,1,1,0,0,1,76.6599,268.183,1.8335,-168.477,0,
117,1,2,1,89,1,135.784,76.6302,46.5703,1,2,3,1,1,0,0,135.784,131.9932,1.0668,-3.7909,30,
117,1,2,1,90,0,286.0726,228.3995,167.7865,0,0,0,3,0,0,0,167.7865,132.1351,1.9834,-35.6514,0,
117,1,2,1,91,1,287.0116,195.9092,139.2813,2,3,1,3,0,1,0,139.2813,154.8355,1.6251,15.5543,20,
117,1,2,1,92,1,225.9992,318.0367,107.7152,3,2,1,1,0,0,1,225.9992,241.6458,1.5001,15.6467,20,
117,1,2,1,93,1,48.791,169.4352,15.344,1,3,2,1,1,0,0,48.791,73.444,1.2501,24.653,10,
117,1,2,1,94,0,16.9081,317.8384,169.4393,0,0,0,1,0,0,0,16.9081,81.7178,1.5001,64.8098,0,
117,1,2,1,95,1,139.6308,166.4925,256.6904,2,3,1,3,0,1,0,256.6904,289.0495,1.5751,32.359,0,
117,1,2,1,96,1,346.3991,77.235,47.9379,1,2,3,1,1,0,0,346.3991,172.0914,1.2335,-174.3078,0,
117,1,2,1,97,1,349.442,316.1658,289.308,2,3,1,2,1,0,0,316.1658,10.5568,1.4584,54.3909,0,
117,1,2,1,98,0,287.6372,108.625,348.0371,0,0,0,2,0,0,0,108.625,99.734,0.90013,-8.8909,30,
117,1,2,1,99,0,349.0746,135.7025,259.3993,0,0,0,1,0,0,0,349.0746,174.0937,1.2334,-174.981,0,
117,1,2,1,100,0,15.4219,229.8604,285.1573,0,0,0,2,0,0,0,229.8604,191.7065,2.3584,-38.1539,0,
117,1,2,1,101,0,318.2673,77.4483,349.8643,0,0,0,2,0,0,0,77.4483,83.4024,0.85841,5.9541,30,
117,1,2,1,102,0,287.6205,225.601,105.889,0,0,0,3,0,0,0,105.889,99.4795,1.0668,-6.4095,30,
117,1,2,1,103,1,77.9122,257.105,345.4603,1,3,2,1,1,0,0,77.9122,96.6972,1.3668,18.7851,20,
117,1,2,1,104,1,15.8762,165.966,258.0821,1,3,2,1,1,0,0,15.8762,201.223,1.5835,-174.6532,0,
117,1,2,1,105,1,288.861,317.3768,18.4045,3,1,2,3,1,0,0,18.4045,15.7256,0.92512,-2.6789,40,
117,1,2,1,106,0,139.1315,79.956,197.6197,0,0,0,3,0,0,0,197.6197,186.552,1.1417,-11.0678,30,
117,1,2,1,107,1,317.3578,347.715,225.2985,2,3,1,2,1,0,0,347.715,217.6777,1.0501,-130.0372,0,
117,1,2,1,108,0,79.1667,256.0186,227.7221,0,0,0,2,0,0,0,256.0186,246.9298,1.6001,-9.0888,30,
117,1,2,1,109,1,165.6614,49.3524,348.0148,2,3,1,1,0,0,1,165.6614,189.1097,0.9667,23.4483,10,
117,1,2,1,110,1,76.8968,319.3234,17.0998,1,2,3,1,1,0,0,76.8968,80.617,1.2835,3.7201,30,
117,1,2,1,111,0,349.1405,287.5372,16.8308,0,0,0,3,0,0,0,16.8308,8.3274,1.8167,-8.5034,30,
117,1,2,1,112,0,167.8456,109.3752,136.7429,0,0,0,2,0,0,0,109.3752,113.3639,1.1251,3.9887,30,
117,1,2,1,113,0,17.3376,75.7067,45.3407,0,0,0,1,0,0,0,17.3376,38.0457,2.2835,20.7081,20,
117,1,2,1,114,1,346.2021,48.4245,319.1963,3,2,1,3,1,0,0,319.1963,301.0404,1.4668,-18.1559,20,
117,1,2,1,115,0,316.9479,48.8765,285.8968,0,0,0,3,0,0,0,285.8968,273.3069,2.6835,-12.5899,20,
117,1,2,1,116,0,169.6136,317.8213,17.1573,0,0,0,3,0,0,0,17.1573,15.448,2.6668,-1.7093,40,
117,1,2,1,117,1,79.9629,257.2792,17.1302,1,3,2,3,0,1,0,17.1302,24.2056,1.3917,7.0754,30,
117,1,2,1,118,1,348.4165,318.0428,46.0983,2,1,3,2,1,0,0,318.0428,304.8708,1.5918,-13.172,20,
117,1,2,1,119,1,169.7606,319.8793,345.1546,1,2,3,1,1,0,0,169.7606,184.1952,1.0835,14.4346,20,
117,1,2,1,120,1,196.2163,77.8571,319.9086,2,1,3,1,0,1,0,196.2163,179.1828,1.4002,-17.0335,20,
117,1,3,2,121,0,315.19,49.7712,258.7119,0,0,0,3,0,0,0,258.7119,300.549,1.3498,41.8371,0,
117,1,3,2,122,1,256.3059,75.474,107.2548,2,3,1,2,1,0,0,75.474,238.4335,3.5001,162.9595,0,
117,1,3,2,123,1,46.3872,285.0305,346.8736,1,3,2,1,1,0,0,46.3872,250.484,1.0751,-155.9032,0,
117,1,3,2,124,0,105.9184,319.3083,75.1632,0,0,0,2,0,0,0,319.3083,264.6226,1.4833,-54.6857,0,
117,1,3,2,125,0,106.5588,195.2766,18.769,0,0,0,3,0,0,0,18.769,18.8907,1.9666,0.1217,40,
117,1,3,2,126,1,139.8817,17.9662,316.522,1,3,2,2,0,0,1,17.9662,45.429,1.1166,27.4628,10,
117,1,3,2,127,1,108.4447,349.7301,229.3677,1,3,2,1,1,0,0,108.4447,86.6657,1.4084,-21.779,10,
117,1,3,2,128,1,319.9646,15.8124,75.5678,3,1,2,3,1,0,0,75.5678,65.8134,1.6502,-9.7544,30,
117,1,3,2,129,1,317.5047,196.66,135.8694,2,3,1,2,1,0,0,196.66,186.3203,1.3084,-10.3397,30,
117,1,3,2,130,1,287.6892,169.3546,108.6142,3,2,1,3,1,0,0,108.6142,102.7351,1.8918,-5.8791,30,
117,1,3,2,131,1,347.3686,289.756,46.2448,2,1,3,2,1,0,0,289.756,208.9778,1.8668,-80.7782,0,
117,1,3,2,132,0,167.2609,19.246,46.9522,0,0,0,2,0,0,0,19.246,29.6668,1.9751,10.4208,30,
117,1,3,2,133,1,197.6056,138.8715,165.6013,2,3,1,2,1,0,0,138.8715,202.9671,0.89175,64.0955,0,
117,1,3,2,134,1,167.5071,256.385,287.6698,3,2,1,1,0,0,1,167.5071,177.2322,1.2667,9.7252,30,
117,1,3,2,135,1,75.2679,196.8753,288.875,2,3,1,2,1,0,0,196.8753,185.1869,2.2418,-11.6884,30,
117,1,3,2,136,1,197.5604,348.6066,259.6442,3,1,2,3,1,0,0,259.6442,269.2205,2.5835,9.5762,30,
117,1,3,2,137,0,168.4379,109.9343,348.8497,0,0,0,3,0,0,0,348.8497,326.9509,0.8751,-21.8987,10,
117,1,3,2,138,0,198.6208,258.0684,348.9148,0,0,0,2,0,0,0,258.0684,200.9136,2.3584,-57.1548,0,
117,1,3,2,139,1,345.3642,288.7561,229.1559,1,2,3,1,1,0,0,345.3642,171.7882,1.1,-173.5759,0,
117,1,3,2,140,1,229.1626,289.9769,348.2488,3,2,1,1,0,0,1,229.1626,266.0643,1.3751,36.9017,0,
117,1,3,2,141,1,196.0322,256.693,137.8706,1,3,2,1,1,0,0,196.0322,226.5096,1.2001,30.4775,0,
117,1,3,2,142,1,137.2949,199.3049,318.3042,3,2,1,3,1,0,0,318.3042,307.0267,1.2584,-11.2775,30,
117,1,3,2,143,1,319.5075,166.5917,77.9854,3,2,1,3,1,0,0,77.9854,43.8266,1.7835,-34.1589,0,
117,1,3,2,144,1,198.7463,49.2093,255.8344,2,3,1,2,1,0,0,49.2093,56.0809,1.0833,6.8716,30,
117,1,3,2,145,0,47.6562,169.7795,195.3334,0,0,0,3,0,0,0,195.3334,292.1187,1.1668,96.7854,0,
117,1,3,2,146,1,285.7627,255.7778,345.4478,3,1,2,3,1,0,0,345.4478,358.8431,1.3834,13.3953,20,
117,1,3,2,147,0,346.1715,287.3235,18.0969,0,0,0,1,0,0,0,346.1715,308.0621,1.4667,-38.1094,0,
117,1,3,2,148,0,286.6012,47.4647,76.1083,0,0,0,1,0,0,0,286.6012,248.0499,2.6418,-38.5513,0,
117,1,3,2,149,1,169.9519,135.1685,257.1213,3,2,1,3,1,0,0,257.1213,251.8023,0.79174,-5.319,30,
117,1,3,2,150,1,135.5186,76.8876,286.3143,1,3,2,1,1,0,0,135.5186,149.9216,1.4168,14.403,20,
117,1,3,2,151,1,136.9241,15.8132,228.9838,3,2,1,3,1,0,0,228.9838,296.0528,1.2501,67.069,0,
117,1,3,2,152,1,256.3422,16.2905,47.405,2,1,3,1,0,1,0,256.3422,NaN,100000,999,0,
117,1,3,2,153,1,46.019,79.9667,135.4681,3,2,1,3,1,0,0,135.4681,154.2197,1.2585,18.7516,20,
117,1,3,2,154,0,139.2935,49.6024,78.7542,0,0,0,3,0,0,0,78.7542,329.4998,1.1168,-109.2544,0,
117,1,3,2,155,0,287.1087,317.0566,79.7957,0,0,0,1,0,0,0,287.1087,209.6621,1.2417,-77.4466,0,
117,1,3,2,156,1,108.3266,79.8213,348.3558,3,1,2,2,0,0,1,79.8213,51.031,1.0834,-28.7903,10,
117,1,3,2,157,1,75.3655,287.9028,346.4351,3,1,2,3,1,0,0,346.4351,340.718,1.2917,-5.7171,30,
117,1,3,2,158,1,198.7184,106.9255,16.2575,3,2,1,3,1,0,0,16.2575,1.045,1.2668,-15.2125,20,
117,1,3,2,159,1,19.4394,316.2826,169.834,1,2,3,3,0,0,1,169.834,164.7925,2.4668,-5.0415,30,
117,1,3,2,160,1,198.7854,49.4316,347.3611,1,2,3,2,0,1,0,49.4316,NaN,100000,999,0,
117,1,3,2,161,0,256.8834,287.5216,198.8175,0,0,0,3,0,0,0,198.8175,216.5051,2.1168,17.6876,20,
117,1,3,2,162,0,15.4179,197.5633,289.1643,0,0,0,2,0,0,0,197.5633,181.5132,1.4335,-16.0502,20,
117,1,3,2,163,0,225.9814,285.6068,317.7185,0,0,0,3,0,0,0,317.7185,294.2666,0.75004,-23.4519,10,
117,1,3,2,164,1,226.822,15.8574,348.9768,2,3,1,2,1,0,0,15.8574,359.2391,1.2418,-16.6183,20,
117,1,3,2,165,0,108.4765,49.8046,227.7316,0,0,0,1,0,0,0,108.4765,178.3234,1.2419,69.8469,0,
117,1,3,2,166,1,139.2915,349.5471,169.8083,2,3,1,2,1,0,0,349.5471,149.1323,2.6418,159.5852,0,
117,1,3,2,167,1,317.665,166.6339,78.011,1,2,3,1,1,0,0,317.665,143.4483,1.0583,-174.2167,0,
117,1,3,2,168,0,45.8568,286.6499,19.8324,0,0,0,1,0,0,0,45.8568,314.8368,1.7501,-91.0201,0,
117,1,3,2,169,0,106.7704,226.3312,346.4575,0,0,0,1,0,0,0,106.7704,174.7602,1.0667,67.9898,0,
117,1,3,2,170,1,49.4181,287.1224,18.0363,2,3,1,2,1,0,0,287.1224,330.4934,1.7834,43.371,0,
117,1,3,2,171,0,17.7364,197.7674,108.1529,0,0,0,2,0,0,0,197.7674,238.5648,1.3501,40.7974,0,
117,1,3,2,172,0,345.4081,166.3724,229.3376,0,0,0,2,0,0,0,166.3724,148.4435,1.4919,-17.9289,20,
117,1,3,2,173,0,198.8857,346.9197,288.5578,0,0,0,1,0,0,0,198.8857,198.7338,0.8084,-0.15194,40,
117,1,3,2,174,0,285.827,225.908,348.4572,0,0,0,1,0,0,0,285.827,198.8945,1.0584,-86.9325,0,
117,1,3,2,175,0,165.0106,319.7555,18.8315,0,0,0,3,0,0,0,18.8315,15.373,1.7502,-3.4585,30,
117,1,3,2,176,0,45.903,107.8665,75.8178,0,0,0,2,0,0,0,107.8665,74.2336,1.3333,-33.6329,0,
117,1,3,2,177,0,46.1465,285.9111,225.8318,0,0,0,3,0,0,0,225.8318,46.9413,1.1083,-178.8904,0,
117,1,3,2,178,0,108.3036,169.7062,19.8785,0,0,0,2,0,0,0,169.7062,51.9712,1.0918,-117.735,0,
117,1,3,2,179,1,259.2268,109.3944,138.7309,3,2,1,2,0,1,0,109.3944,NaN,100000,999,0,
117,1,3,2,180,1,17.2394,78.5482,169.7217,1,2,3,1,1,0,0,17.2394,179.5888,1.225,162.3494,0,
117,1,4,2,181,1,228.2734,195.1307,18.9289,2,3,1,2,1,0,0,195.1307,164.6443,0.95001,-30.4864,0,
117,1,4,2,182,0,109.9695,258.0224,229.7245,0,0,0,3,0,0,0,229.7245,258.8281,0.93353,29.1036,10,
117,1,4,2,183,1,285.552,166.0832,199.0551,1,2,3,1,1,0,0,285.552,280.8031,0.95843,-4.7489,30,
117,1,4,2,184,0,108.221,255.3397,226.0396,0,0,0,3,0,0,0,226.0396,231.8588,1.4584,5.8192,30,
117,1,4,2,185,1,319.6343,15.0415,79.1231,2,3,1,2,1,0,0,15.0415,11.278,0.8834,-3.7635,30,
117,1,4,2,186,1,289.6135,166.6016,349.2877,2,3,1,2,1,0,0,166.6016,150.8681,0.54166,-15.7335,20,
117,1,4,2,187,1,135.0642,315.9331,77.4262,1,2,3,1,1,0,0,135.0642,133.9326,0.99174,-1.1316,40,
117,1,4,2,188,1,137.8393,227.1325,45.3812,1,2,3,1,1,0,0,137.8393,131.9668,0.96669,-5.8724,30,
117,1,4,2,189,0,169.7982,15.4454,288.9887,0,0,0,1,0,0,0,169.7982,178.1944,0.90863,8.3962,30,
117,1,4,2,190,0,137.5494,76.9126,259.5274,0,0,0,2,0,0,0,76.9126,63.4449,1.3918,-13.4677,20,
117,1,4,2,191,1,345.9222,75.2283,289.4252,1,3,2,1,1,0,0,345.9222,354.6166,1.1002,8.6944,30,
117,1,4,2,192,0,48.1135,105.3177,286.8675,0,0,0,2,0,0,0,105.3177,45.9419,0.79176,-59.3758,0,
117,1,4,2,193,1,76.7084,347.7434,17.3027,1,2,3,2,0,1,0,347.7434,NaN,100000,999,0,
117,1,4,2,194,1,257.1951,105.7453,195.1414,1,3,2,2,0,0,1,105.7453,57.8346,1.4751,-47.9107,0,
117,1,4,2,195,1,317.404,105.3326,79.4889,1,3,2,1,1,0,0,317.404,81.0002,2.5169,123.5962,0,
117,1,4,2,196,0,76.7007,169.5946,107.2813,0,0,0,1,0,0,0,76.7007,174.5653,0.81676,97.8646,0,
117,1,4,2,197,1,347.9954,168.0078,108.2471,3,1,2,2,0,0,1,168.0078,59.3725,1.9585,-108.6354,0,
117,1,4,2,198,0,136.8788,169.3173,286.4599,0,0,0,1,0,0,0,136.8788,175.5367,0.7335,38.6579,0,
117,1,4,2,199,0,196.4215,17.1766,229.5188,0,0,0,3,0,0,0,229.5188,214.3452,2.1085,-15.1736,20,
117,1,4,2,200,1,287.6707,136.834,196.8197,1,3,2,1,1,0,0,287.6707,284.1263,1.3001,-3.5444,30,
117,1,4,2,201,1,229.9196,49.8989,16.2508,1,2,3,1,1,0,0,229.9196,223.1533,1.7501,-6.7663,30,
117,1,4,2,202,1,195.0178,169.0762,228.1921,3,2,1,3,1,0,0,228.1921,223.5856,0.90839,-4.6065,30,
117,1,4,2,203,0,257.3316,289.7577,49.825,0,0,0,3,0,0,0,49.825,292.8061,1.4001,-117.019,0,
117,1,4,2,204,1,259.0554,288.5523,139.8512,2,1,3,3,0,0,1,139.8512,126.8112,1.8836,-13.04,20,
117,1,4,2,205,1,286.2257,165.3206,76.3157,1,3,2,1,1,0,0,286.2257,269.6437,2.0251,-16.5819,20,
117,1,4,2,206,1,315.0382,228.0546,17.0404,1,2,3,1,1,0,0,315.0382,234.4382,1.225,-80.6,0,
117,1,4,2,207,0,108.5521,168.4433,16.6047,0,0,0,2,0,0,0,168.4433,147.5486,1.8251,-20.8947,20,
117,1,4,2,208,1,75.8955,138.1723,319.8148,3,1,2,3,1,0,0,319.8148,301.4094,1.8002,-18.4054,20,
117,1,4,2,209,1,169.5658,108.4126,319.7337,1,2,3,1,1,0,0,169.5658,153.8116,1.1418,-15.7542,20,
117,1,4,2,210,0,315.4142,19.752,75.0819,0,0,0,2,0,0,0,19.752,309.866,2.1252,-69.886,0,
117,1,4,2,211,1,317.3943,106.5406,48.7222,3,2,1,1,0,0,1,317.3943,178.0837,1.325,-139.3106,0,
117,1,4,2,212,1,286.3409,257.7512,45.9026,3,2,1,3,1,0,0,45.9026,48.9859,1.5584,3.0833,30,
117,1,4,2,213,0,77.0324,49.759,139.5599,0,0,0,1,0,0,0,77.0324,177.7328,0.67504,100.7005,0,
117,1,4,2,214,0,318.0144,166.8875,138.3247,0,0,0,3,0,0,0,138.3247,123.004,0.99167,-15.3206,20,
117,1,4,2,215,0,198.4041,109.616,45.7642,0,0,0,1,0,0,0,198.4041,203.4968,1.0501,5.0927,30,
117,1,4,2,216,0,45.5504,196.3961,258.8382,0,0,0,3,0,0,0,258.8382,250.9798,1.1917,-7.8584,30,
117,1,4,2,217,0,226.2324,48.3037,346.647,0,0,0,2,0,0,0,48.3037,52.446,1.0584,4.1423,30,
117,1,4,2,218,1,49.0048,137.7749,107.0944,2,1,3,1,0,1,0,49.0048,NaN,100000,999,0,
117,1,4,2,219,1,167.4934,18.693,255.0638,2,3,1,3,0,1,0,255.0638,NaN,100000,999,0,
117,1,4,2,220,0,288.6709,195.521,228.9629,0,0,0,1,0,0,0,288.6709,214.2808,0.85841,-74.3901,0,
117,1,4,2,221,1,165.2439,196.5692,108.2082,3,1,2,3,1,0,0,108.2082,120.2032,2.1168,11.995,30,
117,1,4,2,222,1,48.3979,197.8389,288.2589,3,2,1,2,0,1,0,197.8389,NaN,100000,999,0,
117,1,4,2,223,1,109.8933,45.5568,136.9804,1,2,3,1,1,0,0,109.8933,162.6898,0.78333,52.7965,0,
117,1,4,2,224,0,78.9946,289.6512,345.0236,0,0,0,2,0,0,0,289.6512,60.3981,1.2167,130.7469,0,
117,1,4,2,225,0,165.1751,197.0274,76.2483,0,0,0,2,0,0,0,197.0274,202.8724,1.175,5.8451,30,
117,1,4,2,226,1,138.6715,347.4974,169.7165,1,3,2,1,1,0,0,138.6715,163.4026,1.2168,24.7311,10,
117,1,4,2,227,1,167.6721,77.1758,345.7885,1,2,3,2,0,1,0,77.1758,NaN,100000,999,0,
117,1,4,2,228,1,79.4084,198.6705,227.0322,3,2,1,1,0,0,1,79.4084,141.7274,1.3001,62.319,0,
117,1,4,2,229,1,256.2999,78.9343,137.5579,1,3,2,1,1,0,0,256.2999,261.0576,1.5252,4.7576,30,
117,1,4,2,230,0,258.2465,78.8143,167.8784,0,0,0,2,0,0,0,78.8143,68.1018,0.73333,-10.7125,30,
117,1,4,2,231,1,315.1631,197.1487,45.1863,3,1,2,1,0,1,0,315.1631,NaN,100000,999,0,
117,1,4,2,232,1,166.0708,105.0193,259.4029,3,2,1,1,0,0,1,166.0708,176.3184,1.3501,10.2475,30,
117,1,4,2,233,1,285.4293,17.6559,49.4428,2,1,3,2,1,0,0,17.6559,15.5265,1.1584,-2.1294,40,
117,1,4,2,234,0,137.0614,166.811,48.907,0,0,0,2,0,0,0,166.811,105.3767,1.2251,-61.4343,0,
117,1,4,2,235,0,258.397,19.884,195.6273,0,0,0,1,0,0,0,258.397,212.0549,0.88341,-46.3421,0,
117,1,4,2,236,0,167.6627,229.6285,109.4954,0,0,0,2,0,0,0,229.6285,222.9221,1.3251,-6.7064,30,
117,1,4,2,237,1,289.3028,79.6955,258.401,3,1,2,3,1,0,0,258.401,271.7039,1.1917,13.303,20,
117,1,4,2,238,0,167.6572,228.169,345.0705,0,0,0,1,0,0,0,167.6572,196.7815,0.85006,29.1243,10,
117,1,4,2,239,0,78.7617,259.4745,169.2092,0,0,0,1,0,0,0,78.7617,99.2623,1.1334,20.5006,20,
117,1,4,2,240,0,138.6643,105.5838,18.7302,0,0,0,2,0,0,0,105.5838,109.2901,1.6751,3.7063,30,
117,1,5,2,241,0,167.0559,316.1824,255.9753,0,0,0,2,0,0,0,316.1824,295.0439,2.3251,-21.1385,10,
117,1,5,2,242,1,225.5146,49.9844,196.7948,2,3,1,2,1,0,0,49.9844,46.9095,1.0252,-3.0749,30,
117,1,5,2,243,1,77.9323,198.8902,258.6385,3,2,1,2,0,1,0,198.8902,NaN,100000,999,0,
117,1,5,2,244,1,228.7567,317.6118,347.4522,2,1,3,2,1,0,0,317.6118,313.8184,1.3667,-3.7933,30,
117,1,5,2,245,1,16.2011,225.3515,286.5002,1,2,3,1,1,0,0,16.2011,184.2278,1.0668,168.0267,0,
117,1,5,2,246,1,166.4226,49.1528,229.0918,3,1,2,3,1,0,0,229.0918,207.6747,1.5085,-21.4171,10,
117,1,5,2,247,0,48.2004,108.9378,136.35,0,0,0,2,0,0,0,108.9378,73.53,1.4918,-35.4077,0,
117,1,5,2,248,1,135.4472,258.6564,229.5193,1,2,3,1,1,0,0,135.4472,204.1575,0.71658,68.7103,0,
117,1,5,2,249,0,139.9175,46.2417,348.0318,0,0,0,1,0,0,0,139.9175,149.6897,0.87501,9.7722,30,
117,1,5,2,250,0,287.9163,196.3027,345.4241,0,0,0,2,0,0,0,196.3027,13.0293,2.5751,176.7266,0,
117,1,5,2,251,1,199.6498,106.4098,345.8444,2,3,1,2,1,0,0,106.4098,111.2317,1.4834,4.8219,30,
117,1,5,2,252,1,169.1344,316.5048,346.9194,2,1,3,2,1,0,0,316.5048,327.2481,1.5501,10.7433,30,
117,1,5,2,253,1,195.6162,138.6794,225.7831,3,2,1,3,1,0,0,225.7831,227.8713,0.75008,2.0883,40,
117,1,5,2,254,1,105.6737,316.6189,199.7527,2,3,1,2,1,0,0,316.6189,332.7348,1.6751,16.1159,20,
117,1,5,2,255,1,319.0859,286.8877,49.863,2,1,3,2,1,0,0,286.8877,302.4173,0.79167,15.5296,20,
117,1,5,2,256,0,169.9745,197.4529,47.5173,0,0,0,3,0,0,0,47.5173,63.2638,1.5168,15.7466,20,
117,1,5,2,257,1,108.6293,256.6972,346.3634,2,3,1,1,0,0,1,108.6293,340.2388,1.5667,-128.3905,0,
117,1,5,2,258,1,315.1454,285.681,18.4728,1,3,2,1,1,0,0,315.1454,103.9461,1.2418,148.8007,0,
117,1,5,2,259,0,345.3735,195.9123,165.1584,0,0,0,2,0,0,0,195.9123,178.6511,1.0167,-17.2611,20,
117,1,5,2,260,1,48.6624,345.8147,229.6054,2,1,3,2,1,0,0,345.8147,351.0911,1.0083,5.2764,30,
117,1,5,2,261,0,75.0066,49.9063,17.851,0,0,0,3,0,0,0,17.851,53.7689,2.7251,35.9179,0,
117,1,5,2,262,1,108.7804,256.4412,78.0309,2,3,1,3,0,1,0,78.0309,NaN,100000,999,0,
117,1,5,2,263,0,136.1479,165.0346,318.8332,0,0,0,1,0,0,0,136.1479,143.7743,1.2751,7.6264,30,
117,1,5,2,264,1,197.5948,19.1099,348.1851,3,1,2,1,0,1,0,197.5948,NaN,100000,999,0,
117,1,5,2,265,1,107.0495,196.8559,226.1343,3,2,1,1,0,0,1,107.0495,259.5913,1.1167,152.5419,0,
117,1,5,2,266,0,168.9651,139.0778,48.7606,0,0,0,1,0,0,0,168.9651,157.2419,0.90011,-11.7232,30,
117,1,5,2,267,1,317.7818,139.8454,168.4456,1,3,2,1,1,0,0,317.7818,313.4165,1.2917,-4.3653,30,
117,1,5,2,268,0,345.0331,197.9865,288.2959,0,0,0,2,0,0,0,197.9865,214.0003,1.3084,16.0138,20,
117,1,5,2,269,0,168.9406,229.348,288.9377,0,0,0,3,0,0,0,288.9377,293.5463,0.73348,4.6085,30,
117,1,5,2,270,1,165.9414,106.621,288.5802,2,1,3,2,1,0,0,106.621,85.5703,0.75843,-21.0507,10,
117,1,5,2,271,1,168.5983,256.5138,47.2951,3,2,1,3,1,0,0,47.2951,30.69,1.1251,-16.6052,20,
117,1,5,2,272,1,17.1214,319.5277,287.0866,3,1,2,2,0,0,1,319.5277,285.485,2.1335,-34.0427,0,
117,1,5,2,273,0,285.9294,16.4572,317.3083,0,0,0,2,0,0,0,16.4572,19.324,1.7417,2.8667,40,
117,1,5,2,274,1,135.8698,195.5877,105.8702,2,3,1,1,0,0,1,135.8698,192.3162,0.95836,56.4465,0,
117,1,5,2,275,1,107.3868,259.4494,195.3254,1,2,3,3,0,0,1,195.3254,64.1058,1.6418,-131.2196,0,
117,1,5,2,276,1,136.9238,347.8132,168.1692,2,3,1,3,0,1,0,168.1692,NaN,100000,999,0,
117,1,5,2,277,1,227.7422,136.0392,108.9229,1,2,3,1,1,0,0,227.7422,230.04,1.4918,2.2978,40,
117,1,5,2,278,1,138.9978,348.9808,289.7704,3,2,1,3,1,0,0,289.7704,302.3289,1.0334,12.5585,20,
117,1,5,2,279,0,136.8617,167.0285,17.1941,0,0,0,2,0,0,0,167.0285,173.0782,1.4168,6.0497,30,
117,1,5,2,280,0,318.5183,259.5948,138.3004,0,0,0,3,0,0,0,138.3004,126.3724,0.94173,-11.9279,30,
117,1,5,2,281,1,225.1476,257.3617,288.3922,3,1,2,3,1,0,0,288.3922,266.8926,1.0416,-21.4996,10,
117,1,5,2,282,0,19.5042,105.6908,48.9704,0,0,0,2,0,0,0,105.6908,61.0399,1.4001,-44.6509,0,
117,1,5,2,283,1,45.9366,77.7282,136.2756,1,3,2,1,1,0,0,45.9366,176.6853,0.88343,130.7487,0,
117,1,5,2,284,1,169.4306,45.747,257.1734,1,3,2,1,1,0,0,169.4306,180,1.2752,10.5694,30,
117,1,5,2,285,0,287.5569,16.0754,106.7305,0,0,0,2,0,0,0,16.0754,7.3098,0.99176,-8.7656,30,
117,1,5,2,286,1,287.3987,75.9933,316.1951,2,3,1,3,0,1,0,316.1951,NaN,100000,999,0,
117,1,5,2,287,1,259.6331,285.4745,76.8771,2,3,1,1,0,0,1,259.6331,270.8345,1.4752,11.2014,30,
117,1,5,2,288,0,197.3872,316.5277,47.5817,0,0,0,3,0,0,0,47.5817,310.195,0.89177,-97.3866,0,
117,1,5,2,289,0,319.7979,108.851,79.3751,0,0,0,3,0,0,0,79.3751,79.2156,1.5751,-0.15943,40,
117,1,5,2,290,1,16.3184,229.58,348.0752,3,2,1,3,1,0,0,348.0752,357.1524,1.2918,9.0773,30,
117,1,5,2,291,1,347.7596,17.0191,198.7506,2,1,3,1,0,1,0,347.7596,NaN,100000,999,0,
117,1,5,2,292,1,229.2868,75.9901,315.778,2,1,3,2,1,0,0,75.9901,73.2495,0.91679,-2.7406,40,
117,1,5,2,293,0,76.7418,17.4316,258.3976,0,0,0,3,0,0,0,258.3976,298.2525,1.4334,39.855,0,
117,1,5,2,294,0,139.9652,345.4822,196.5657,0,0,0,3,0,0,0,196.5657,175.1007,2.6085,-21.465,10,
117,1,5,2,295,1,258.5304,135.1951,198.0815,2,1,3,1,0,1,0,258.5304,NaN,100000,999,0,
117,1,5,2,296,0,79.9196,45.2887,106.9827,0,0,0,3,0,0,0,106.9827,137.0838,0.90835,30.1011,0,
117,1,5,2,297,1,139.4131,317.1872,79.1748,2,1,3,3,0,0,1,79.1748,77.7965,1.5001,-1.3783,40,
117,1,5,2,298,0,169.0204,227.8133,108.7544,0,0,0,1,0,0,0,169.0204,169.9774,0.60842,0.95703,40,
117,1,5,2,299,1,15.6194,315.9312,168.2325,1,2,3,1,1,0,0,15.6194,161.8536,1.1,146.2342,0,
117,1,5,2,300,1,108.8763,47.9592,16.8809,1,2,3,3,0,0,1,16.8809,14.4801,2.0251,-2.4008,40,
117,1,6,2,301,0,46.9234,135.2004,227.9147,0,0,0,1,0,0,0,46.9234,184.6286,2.3167,137.7052,0,
117,1,6,2,302,0,195.7893,347.5433,258.0165,0,0,0,3,0,0,0,258.0165,341.8463,1.375,83.8298,0,
117,1,6,2,303,0,16.8971,197.9642,135.3425,0,0,0,2,0,0,0,197.9642,210.0808,1.2252,12.1165,20,
117,1,6,2,304,0,347.1749,287.7893,258.1939,0,0,0,1,0,0,0,347.1749,9.6016,1.7502,22.4267,10,
117,1,6,2,305,1,16.4771,196.8306,76.7452,2,3,1,2,1,0,0,196.8306,218.2396,1.0168,21.409,10,
117,1,6,2,306,1,317.1352,167.8886,349.4976,3,1,2,2,0,0,1,167.8886,210.9007,0.95839,43.0121,0,
117,1,6,2,307,0,349.4673,318.2654,15.2014,0,0,0,1,0,0,0,349.4673,350.7399,1.2917,1.2727,40,
117,1,6,2,308,1,348.6462,168.243,137.3733,2,1,3,2,1,0,0,168.243,158.3352,1.5417,-9.9078,30,
117,1,6,2,309,1,136.4477,45.0925,348.5075,2,1,3,2,1,0,0,45.0925,48.1936,0.89173,3.1011,30,
117,1,6,2,310,1,315.7111,256.8779,168.9678,2,1,3,2,1,0,0,256.8779,218.0577,1.8917,-38.8202,0,
117,1,6,2,311,1,169.758,196.7334,286.4866,1,3,2,1,1,0,0,169.758,190.1684,1.4751,20.4104,20,
117,1,6,2,312,1,259.5246,346.4085,138.0694,1,2,3,2,0,1,0,346.4085,NaN,100000,999,0,
117,1,6,2,313,0,225.0449,48.5914,257.2471,0,0,0,1,0,0,0,225.0449,229.9279,1.4751,4.8829,30,
117,1,6,2,314,1,109.9422,346.2555,196.5774,1,3,2,1,1,0,0,109.9422,106.5151,1.1001,-3.427,30,
117,1,6,2,315,0,46.3042,227.4654,109.2792,0,0,0,3,0,0,0,109.2792,131.9788,1.3333,22.6996,10,
117,1,6,2,316,0,257.3016,227.5784,76.36,0,0,0,3,0,0,0,76.36,96.7588,1.4585,20.3989,20,
117,1,6,2,317,1,257.7944,16.1293,135.5226,1,2,3,2,0,1,0,16.1293,NaN,100000,999,0,
117,1,6,2,318,1,19.299,47.9853,288.2738,2,1,3,1,0,1,0,19.299,NaN,100000,999,0,
117,1,6,2,319,1,195.14,255.3342,79.6353,3,1,2,3,1,0,0,79.6353,62.7198,1.9085,-16.9155,20,
117,1,6,2,320,1,15.1824,255.3184,106.6144,1,3,2,2,0,0,1,255.3184,237.1431,2.3169,-18.1753,20,
117,1,6,2,321,0,107.9897,225.1151,19.4971,0,0,0,1,0,0,0,107.9897,195.529,1.3584,87.5393,0,
117,1,6,2,322,0,197.2525,47.8892,285.3742,0,0,0,2,0,0,0,47.8892,46.1166,1.2084,-1.7727,40,
117,1,6,2,323,1,17.2564,316.2498,139.7772,2,3,1,2,1,0,0,316.2498,305.3274,1.425,-10.9224,30,
117,1,6,2,324,0,17.2228,288.1376,347.6732,0,0,0,3,0,0,0,347.6732,14.6237,2.8669,26.9505,10,
117,1,6,2,325,1,317.5363,165.5686,257.4522,3,1,2,3,1,0,0,257.4522,243.6556,1.5167,-13.7966,20,
117,1,6,2,326,1,47.5541,317.8229,199.9686,2,1,3,2,1,0,0,317.8229,329.8366,0.90833,12.0137,20,
117,1,6,2,327,0,106.6799,75.7242,346.2244,0,0,0,2,0,0,0,75.7242,117.6321,1.3251,41.9078,0,
117,1,6,2,328,1,169.2888,79.31,346.5665,1,3,2,3,0,1,0,346.5665,NaN,100000,999,0,
117,1,6,2,329,1,319.3634,106.4291,198.2842,3,1,2,3,1,0,0,198.2842,331.1173,1.2667,132.833,0,
117,1,6,2,330,1,349.5954,197.0535,78.6618,3,1,2,1,0,1,0,349.5954,NaN,100000,999,0,
117,1,6,2,331,1,15.0076,347.81,287.7324,3,1,2,3,1,0,0,287.7324,304.022,1.8168,16.2896,20,
117,1,6,2,332,1,285.9061,227.1312,255.4908,1,3,2,1,1,0,0,285.9061,262.8483,0.86676,-23.0578,10,
117,1,6,2,333,1,345.6878,197.1204,228.8228,3,1,2,3,1,0,0,228.8228,214.3045,1.5918,-14.5183,20,
117,1,6,2,334,1,165.8893,259.9342,75.085,2,1,3,1,0,1,0,165.8893,NaN,100000,999,0,
117,1,6,2,335,1,18.1545,289.4599,318.367,1,2,3,1,1,0,0,18.1545,196.8324,1.0418,178.6779,0,
117,1,6,2,336,1,227.6908,319.5507,166.7535,1,3,2,3,0,1,0,166.7535,NaN,100000,999,0,
117,1,6,2,337,0,256.578,109.9701,229.9195,0,0,0,1,0,0,0,256.578,238.3227,0.79165,-18.2553,20,
117,1,6,2,338,1,258.626,319.1718,285.0945,3,2,1,1,0,0,1,258.626,182.2107,1.4749,-76.4153,0,
117,1,6,2,339,0,289.6574,136.8901,18.0884,0,0,0,1,0,0,0,289.6574,262.6732,1.5917,-26.9842,10,
117,1,6,2,340,1,107.9087,195.499,225.833,3,1,2,3,1,0,0,225.833,215.5916,1.0751,-10.2414,30,
117,1,6,2,341,0,19.4256,46.0482,167.4018,0,0,0,2,0,0,0,46.0482,214.9684,1.1084,168.9201,0,
117,1,6,2,342,1,78.6958,106.2681,18.5963,1,2,3,2,0,1,0,106.2681,NaN,100000,999,0,
117,1,6,2,343,0,258.1371,347.3141,105.6472,0,0,0,3,0,0,0,105.6472,94.486,1.4585,-11.1612,30,
117,1,6,2,344,0,229.993,137.5676,346.9392,0,0,0,1,0,0,0,229.993,261.4425,2.2168,31.4496,0,
117,1,6,2,345,1,199.8122,16.5687,48.9854,2,1,3,2,1,0,0,16.5687,44.802,1.0584,28.2333,10,
117,1,6,2,346,1,49.5963,169.9447,79.663,2,1,3,3,0,0,1,79.663,86.8942,2.9919,7.2311,30,
117,1,6,2,347,1,195.941,315.5034,346.4328,2,1,3,2,1,0,0,315.5034,323.7544,1.8001,8.251,30,
117,1,6,2,348,1,106.7758,228.1557,19.3227,1,3,2,1,1,0,0,106.7758,130.0335,0.92505,23.2578,10,
117,1,6,2,349,1,16.1481,136.7947,46.8158,3,1,2,3,1,0,0,46.8158,17.548,1.5418,-29.2678,10,
117,1,6,2,350,0,346.4404,166.8831,225.7325,0,0,0,1,0,0,0,346.4404,159.8915,1.1334,173.4511,0,
117,1,6,2,351,1,255.7971,226.3939,18.2247,3,2,1,1,0,0,1,255.7971,210.5556,1.4335,-45.2416,0,
117,1,6,2,352,0,75.5483,347.8292,256.3717,0,0,0,3,0,0,0,256.3717,267.3535,1.1918,10.9818,30,
117,1,6,2,353,1,288.1388,77.2337,19.0555,1,3,2,1,1,0,0,288.1388,93.5165,1.1918,165.3777,0,
117,1,6,2,354,0,196.9487,15.7521,166.6685,0,0,0,3,0,0,0,166.6685,179.1583,2.6502,12.4898,20,
117,1,6,2,355,0,106.9478,257.4507,79.4345,0,0,0,1,0,0,0,106.9478,87.1491,1.1168,-19.7987,20,
117,1,6,2,356,1,319.31,345.6282,258.2279,3,1,2,3,1,0,0,258.2279,266.2799,0.60002,8.052,30,
117,1,6,2,357,1,138.9567,288.2831,107.7184,2,3,1,2,1,0,0,288.2831,283.0415,1.8835,-5.2416,30,
117,1,6,2,358,0,315.156,289.1379,16.3213,0,0,0,3,0,0,0,16.3213,4.0052,1.4167,-12.3161,20,
117,1,6,2,359,0,258.0154,135.9201,225.4373,0,0,0,1,0,0,0,258.0154,224.5371,1.3084,-33.4783,0,
117,1,6,2,360,1,139.5235,198.8365,47.8133,2,1,3,2,1,0,0,198.8365,192.9095,1.6,-5.927,30,
117,1,7,1,361,1,137.7436,195.0777,75.4734,2,1,3,2,1,0,0,195.0777,178.7614,1.1002,-16.3163,20,
117,1,7,1,362,1,256.7246,198.4634,348.583,1,2,3,1,1,0,0,256.7246,250.0387,1.0917,-6.6859,30,
117,1,7,1,363,1,135.1638,79.2181,258.8515,2,1,3,2,1,0,0,79.2181,57.1834,1,-22.0347,10,
117,1,7,1,364,1,318.2542,229.9111,195.9692,1,2,3,2,0,1,0,229.9111,219.9291,1.2751,-9.982,30,
117,1,7,1,365,1,108.4551,288.2361,228.1172,3,1,2,3,1,0,0,228.1172,221.3368,0.63339,-6.7804,30,
117,1,7,1,366,0,346.1287,288.3308,49.3567,0,0,0,1,0,0,0,346.1287,183.991,0.85841,-162.1378,0,
117,1,7,1,367,1,228.7525,46.6696,168.1642,3,2,1,3,1,0,0,168.1642,164.5589,0.91668,-3.6053,30,
117,1,7,1,368,1,226.3755,139.1398,258.9639,1,2,3,3,0,0,1,258.9639,264.3716,1.2667,5.4077,30,
117,1,7,1,369,1,79.0965,319.6324,17.5706,3,1,2,2,0,0,1,319.6324,205.7383,1.9834,-113.8941,0,
117,1,7,1,370,1,319.6235,15.2778,76.9202,2,1,3,1,0,1,0,319.6235,137.995,0.82503,178.3715,0,
117,1,7,1,371,0,319.6585,285.5445,48.2585,0,0,0,1,0,0,0,319.6585,284.4115,1.175,-35.247,0,
117,1,7,1,372,0,106.2626,258.2717,15.3005,0,0,0,3,0,0,0,15.3005,18.3956,1.4834,3.0951,30,
117,1,7,1,373,0,49.0672,258.9382,345.6216,0,0,0,2,0,0,0,258.9382,322.5332,1.9335,63.595,0,
117,1,7,1,374,1,166.1154,197.5488,18.9387,3,2,1,1,0,0,1,166.1154,175.1725,1.2334,9.0571,30,
117,1,7,1,375,0,135.6449,196.0742,226.4641,0,0,0,1,0,0,0,135.6449,194.2152,1.0252,58.5703,0,
117,1,7,1,376,1,258.7972,46.9971,227.8371,3,2,1,1,0,0,1,258.7972,220.1326,1.0417,-38.6646,0,
117,1,7,1,377,1,19.3937,136.9647,106.2132,3,1,2,3,1,0,0,106.2132,139.2526,1.1418,33.0394,0,
117,1,7,1,378,1,198.1299,16.6345,346.5555,1,3,2,2,0,0,1,16.6345,21.0408,1.3334,4.4063,30,
117,1,7,1,379,0,255.9533,317.2465,78.8433,0,0,0,2,0,0,0,317.2465,273.9181,1.2334,-43.3284,0,
117,1,7,1,380,1,106.7368,288.8994,198.5417,1,3,2,3,0,1,0,198.5417,198.9637,2.2334,0.42202,40,
117,1,7,1,381,1,226.6913,289.8702,169.7739,1,3,2,1,1,0,0,226.6913,252.2535,1.1501,25.5622,10,
117,1,7,1,382,1,75.0635,45.6611,226.9403,1,3,2,1,1,0,0,75.0635,227.1818,0.84177,152.1183,0,
117,1,7,1,383,0,195.7207,48.1759,349.0121,0,0,0,2,0,0,0,48.1759,27.2873,2.3502,-20.8886,20,
117,1,7,1,384,1,135.4763,286.2294,199.6733,3,1,2,2,0,0,1,286.2294,273.1345,2.3168,-13.0948,20,
117,1,7,1,385,0,107.2227,346.6329,286.4365,0,0,0,1,0,0,0,107.2227,108.4304,1.725,1.2077,40,
117,1,7,1,386,0,167.3073,257.9357,47.388,0,0,0,3,0,0,0,47.388,129.6875,1.7668,82.2996,0,
117,1,7,1,387,0,105.1816,45.943,347.8877,0,0,0,1,0,0,0,105.1816,181.9675,1.3502,76.7858,0,
117,1,7,1,388,0,197.7527,139.9306,168.4489,0,0,0,2,0,0,0,139.9306,148.9047,1.2668,8.9741,30,
117,1,7,1,389,1,106.463,49.1621,137.8526,2,3,1,2,1,0,0,49.1621,174.5138,0.9167,125.3517,0,
117,1,7,1,390,0,18.0356,289.7875,76.6533,0,0,0,1,0,0,0,18.0356,28.1599,1.3418,10.1243,30,
117,1,7,1,391,1,45.3576,315.0784,289.8684,3,1,2,3,1,0,0,289.8684,298.2717,2.0168,8.4033,30,
117,1,7,1,392,1,78.5901,105.9445,317.1697,3,1,2,3,1,0,0,317.1697,309.0407,1.2668,-8.129,30,
117,1,7,1,393,1,319.7139,18.3713,226.9283,2,3,1,2,1,0,0,18.3713,13.9599,1.1167,-4.4114,30,
117,1,7,1,394,1,196.9913,225.6865,319.7638,3,2,1,3,1,0,0,319.7638,318.6069,1.0417,-1.1569,40,
117,1,7,1,395,0,75.4069,138.9374,255.872,0,0,0,1,0,0,0,75.4069,251.892,1.3168,176.485,0,
117,1,7,1,396,0,347.3247,229.1204,79.3594,0,0,0,3,0,0,0,79.3594,98.0181,1.5335,18.6586,20,
117,1,7,1,397,0,199.4692,169.205,48.4164,0,0,0,1,0,0,0,199.4692,183.9743,0.72506,-15.495,20,
117,1,7,1,398,1,106.0224,15.3143,48.1119,3,1,2,3,1,0,0,48.1119,74.0747,1.3751,25.9627,10,
117,1,7,1,399,1,347.7221,289.2307,45.2035,1,3,2,1,1,0,0,347.7221,175.8003,1.1416,-171.9217,0,
117,1,7,1,400,1,288.0459,259.8347,198.8666,1,3,2,1,1,0,0,288.0459,250.003,1.0418,-38.0429,0,
117,1,7,1,401,0,138.5923,169.9766,75.4185,0,0,0,1,0,0,0,138.5923,160.4945,1.3669,21.9022,10,
117,1,7,1,402,1,138.4918,47.2984,315.7883,3,1,2,3,1,0,0,315.7883,305.4275,1.1834,-10.3608,30,
117,1,7,1,403,1,318.6274,135.6952,168.1628,3,1,2,1,0,1,0,318.6274,330.0211,2.2669,11.3936,30,
117,1,7,1,404,1,198.2711,316.0916,345.5957,3,1,2,3,1,0,0,345.5957,318.9104,1.6168,-26.6853,10,
117,1,7,1,405,1,19.5455,197.2517,168.7432,1,3,2,3,0,1,0,168.7432,207.6044,2.0084,38.8612,0,
117,1,7,1,406,0,196.9978,48.2766,317.8342,0,0,0,3,0,0,0,317.8342,301.7657,1.175,-16.0685,20,
117,1,7,1,407,1,18.4428,258.0195,106.9348,2,3,1,3,0,1,0,106.9348,133.7223,1.3668,26.7875,10,
117,1,7,1,408,0,18.089,137.9711,318.3294,0,0,0,3,0,0,0,318.3294,295.2382,2.0001,-23.0911,10,
117,1,7,1,409,0,285.4329,319.6342,15.7424,0,0,0,1,0,0,0,285.4329,277.8896,1.9251,-7.5433,30,
117,1,7,1,410,0,167.2618,137.6668,287.6333,0,0,0,2,0,0,0,137.6668,32.9816,2.4668,-104.6852,0,
117,1,7,1,411,1,257.6176,76.6841,136.6619,3,1,2,3,1,0,0,136.6619,133.156,1.5416,-3.5059,30,
117,1,7,1,412,1,318.6127,255.6712,169.2655,2,3,1,2,1,0,0,255.6712,224.2749,0.82507,-31.3964,0,
117,1,7,1,413,1,195.6399,167.3218,78.713,1,3,2,1,1,0,0,195.6399,177.4488,1.1668,-18.1912,20,
117,1,7,1,414,0,255.0215,348.2625,136.8484,0,0,0,2,0,0,0,348.2625,306.7413,1.375,-41.5212,0,
117,1,7,1,415,0,169.2599,195.5886,108.2863,0,0,0,3,0,0,0,108.2863,88.5045,1.5335,-19.7818,20,
117,1,7,1,416,0,108.0519,256.2399,137.5898,0,0,0,1,0,0,0,108.0519,7.794,2.2668,-100.2579,0,
117,1,7,1,417,1,315.776,79.9704,137.2512,1,2,3,1,1,0,0,315.776,313.2042,0.96671,-2.5718,40,
117,1,7,1,418,1,109.5576,45.6649,285.2108,2,1,3,3,0,0,1,285.2108,322.7422,0.92516,37.5314,0,
117,1,7,1,419,0,285.9982,227.6508,348.1368,0,0,0,1,0,0,0,285.9982,273.7583,0.95837,-12.2399,20,
117,1,7,1,420,1,285.1161,195.8806,349.3046,2,3,1,2,1,0,0,195.8806,177.957,2.2084,-17.9236,20,
117,1,8,1,421,1,139.1592,226.9724,75.4832,2,3,1,2,1,0,0,226.9724,200.5793,0.94999,-26.393,10,
117,1,8,1,422,1,258.0006,19.9983,285.6459,3,1,2,3,1,0,0,285.6459,302.2712,0.78334,16.6253,20,
117,1,8,1,423,0,347.863,79.9688,136.8148,0,0,0,2,0,0,0,79.9688,49.0116,1.1834,-30.9572,0,
117,1,8,1,424,1,138.8927,289.0539,347.4898,3,2,1,3,1,0,0,347.4898,333.7826,1.5667,-13.7071,20,
117,1,8,1,425,0,139.122,45.8653,229.3182,0,0,0,3,0,0,0,229.3182,294.6914,0.83338,65.3731,0,
117,1,8,1,426,1,138.0311,78.9619,49.1808,2,1,3,2,1,0,0,78.9619,74.7129,1.4167,-4.249,30,
117,1,8,1,427,0,46.1867,195.6983,256.1037,0,0,0,2,0,0,0,195.6983,237.5316,1.9667,41.8333,0,
117,1,8,1,428,1,346.4768,289.5354,227.4644,3,2,1,3,1,0,0,227.4644,244.5259,1.0918,17.0615,20,
117,1,8,1,429,1,47.187,79.2999,15.0445,1,3,2,1,1,0,0,47.187,178.9325,0.9418,131.7455,0,
117,1,8,1,430,0,79.2645,348.4328,109.7906,0,0,0,2,0,0,0,348.4328,342.7142,1.1251,-5.7185,30,
117,1,8,1,431,1,166.9384,345.2837,198.4479,3,2,1,3,1,0,0,198.4479,187.5047,0.66671,-10.9431,30,
117,1,8,1,432,0,46.1005,196.179,169.0506,0,0,0,3,0,0,0,169.0506,165.2074,2.1834,-3.8433,30,
117,1,8,1,433,0,285.1488,259.3335,319.4721,0,0,0,2,0,0,0,259.3335,289.4414,1.3751,30.1078,0,
117,1,8,1,434,0,315.0558,256.1726,168.5349,0,0,0,1,0,0,0,315.0558,150.7762,1.9418,-164.2796,0,
117,1,8,1,435,1,138.3282,106.1507,49.0244,2,3,1,2,1,0,0,106.1507,85.9524,1.0085,-20.1983,20,
117,1,8,1,436,0,167.1549,138.8245,349.9823,0,0,0,3,0,0,0,349.9823,305.2474,0.93346,-44.7349,0,
117,1,8,1,437,0,107.9765,77.5306,228.882,0,0,0,2,0,0,0,77.5306,74.2681,1.3751,-3.2625,30,
117,1,8,1,438,1,165.7078,228.0405,49.6531,3,2,1,1,0,0,1,165.7078,137.9027,1.1251,-27.8052,10,
117,1,8,1,439,1,348.1345,49.685,316.5997,2,1,3,3,0,0,1,316.5997,300.5081,1.6001,-16.0916,20,
117,1,8,1,440,1,75.7592,348.6651,45.1985,2,1,3,2,1,0,0,348.6651,344.0818,1.0501,-4.5833,30,
117,1,8,1,441,1,166.6833,319.4168,46.6683,3,2,1,3,1,0,0,46.6683,15.9414,2.1668,-30.7269,0,
117,1,8,1,442,1,78.6986,197.224,109.252,1,2,3,2,0,1,0,197.224,197.2808,1.4,0.056856,40,
117,1,8,1,443,1,227.4811,166.4383,105.9151,1,3,2,1,1,0,0,227.4811,195.0115,0.90011,-32.4695,0,
117,1,8,1,444,0,226.7599,195.5008,288.965,0,0,0,1,0,0,0,226.7599,203.5753,1.3335,-23.1846,10,
117,1,8,1,445,1,228.4323,319.7786,106.5395,1,2,3,1,1,0,0,228.4323,204.5598,1.3001,-23.8725,10,
117,1,8,1,446,0,79.7326,317.4622,348.7411,0,0,0,1,0,0,0,79.7326,203.5539,1.2168,123.8213,0,
117,1,8,1,447,0,45.9115,197.797,18.1324,0,0,0,3,0,0,0,18.1324,24.7269,1.2584,6.5945,30,
117,1,8,1,448,1,18.6621,168.1551,287.341,3,2,1,3,1,0,0,287.341,304.2291,1.3501,16.8881,20,
117,1,8,1,449,1,136.0884,285.0426,346.5031,3,1,2,3,1,0,0,346.5031,343.6195,0.87511,-2.8836,40,
117,1,8,1,450,0,315.1533,349.0435,225.2357,0,0,0,2,0,0,0,349.0435,45.682,1,56.6385,0,
117,1,8,1,451,1,138.6936,315.0693,168.3956,2,3,1,3,0,1,0,168.3956,137.9462,1.5501,-30.4494,0,
117,1,8,1,452,1,46.0342,105.1868,78.3168,3,2,1,3,1,0,0,78.3168,64.7662,1.2752,-13.5506,20,
117,1,8,1,453,0,165.0947,45.9217,15.1337,0,0,0,2,0,0,0,45.9217,221.3664,1.3501,175.4447,0,
117,1,8,1,454,0,348.5217,318.8731,289.1133,0,0,0,3,0,0,0,289.1133,307.8038,1.3084,18.6906,20,
117,1,8,1,455,1,139.6704,47.9709,317.9655,2,1,3,2,1,0,0,47.9709,54.7208,0.95014,6.7499,30,
117,1,8,1,456,1,286.0016,45.0729,168.8158,2,3,1,2,1,0,0,45.0729,63.9472,1.4751,18.8743,20,
117,1,8,1,457,1,195.2941,256.1198,15.8399,3,1,2,3,1,0,0,15.8399,153.6756,3.7086,137.8357,0,
117,1,8,1,458,1,138.5184,169.1855,258.6365,1,2,3,1,1,0,0,138.5184,173.3474,0.9751,34.8291,0,
117,1,8,1,459,1,19.902,108.5641,259.1282,3,2,1,2,0,1,0,108.5641,77.4115,1.4668,-31.1526,0,
117,1,8,1,460,1,108.5872,226.0126,318.2188,2,1,3,2,1,0,0,226.0126,225.8728,1.4918,-0.13979,40,
117,1,8,1,461,0,19.6597,105.4666,288.6939,0,0,0,3,0,0,0,288.6939,283.7481,1.2167,-4.9458,30,
117,1,8,1,462,1,109.9663,18.7877,196.3753,3,1,2,2,0,0,1,18.7877,30.0187,1.7001,11.231,30,
117,1,8,1,463,0,139.1878,168.7421,197.9193,0,0,0,3,0,0,0,197.9193,185.9919,1.4501,-11.9274,30,
117,1,8,1,464,0,136.7104,259.36,16.3401,0,0,0,3,0,0,0,16.3401,139.3121,2.3335,122.9719,0,
117,1,8,1,465,1,136.4382,79.6219,316.4924,3,2,1,2,0,1,0,79.6219,34.006,1.9584,-45.6159,0,
117,1,8,1,466,1,196.6333,136.0981,167.5911,3,1,2,3,1,0,0,167.5911,152.7692,0.9667,-14.8219,20,
117,1,8,1,467,1,226.3809,318.4812,259.4068,3,2,1,3,1,0,0,259.4068,265.0353,0.95,5.6285,30,
117,1,8,1,468,0,18.9916,169.3163,138.9898,0,0,0,2,0,0,0,169.3163,115.8761,1.1752,-53.4402,0,
117,1,8,1,469,1,15.3526,75.3001,108.3079,3,1,2,3,1,0,0,108.3079,102.5729,1.5501,-5.735,30,
117,1,8,1,470,0,46.2786,346.8916,169.9687,0,0,0,1,0,0,0,46.2786,88.5703,1.5417,42.2917,0,
117,1,8,1,471,1,345.2622,106.6171,78.9984,3,1,2,3,1,0,0,78.9984,78.716,1.125,-0.28248,40,
117,1,8,1,472,0,348.2674,166.2214,78.7896,0,0,0,3,0,0,0,78.7896,76.353,1.1085,-2.4366,40,
117,1,8,1,473,1,106.559,257.9588,76.8881,1,2,3,2,0,1,0,257.9588,276.6177,2.1334,18.6588,20,
117,1,8,1,474,1,317.6116,229.0412,257.2379,2,1,3,3,0,0,1,257.2379,260.1862,0.7751,2.9483,40,
117,1,8,1,475,1,287.5106,197.8513,19.2574,1,3,2,1,1,0,0,287.5106,276.7905,0.92508,-10.7201,30,
117,1,8,1,476,0,227.7234,199.2796,318.2134,0,0,0,1,0,0,0,227.7234,262.8143,1.2918,35.091,0,
117,1,8,1,477,1,76.0947,286.1864,255.0432,1,3,2,3,0,1,0,255.0432,271.553,1.2668,16.5098,20,
117,1,8,1,478,1,317.4562,198.8708,225.7391,2,3,1,3,0,1,0,225.7391,263.4342,1.1001,37.6951,0,
117,1,8,1,479,1,46.7157,195.3171,168.0624,1,3,2,2,0,0,1,195.3171,206.4103,1.4251,11.0931,30,
117,1,8,1,480,1,285.5423,79.2688,319.5543,3,1,2,3,1,0,0,319.5543,318.2607,1.3167,-1.2936,40,
